
time,gFx,gFy,gFz,ax,ay,az,wx,wy,wz,Latitude,Longitude,Speed (m/s),
0.1050,0.0000,0.0000,0.0000,0.0000,0.0000,0.0000,-0.1254,-0.0480,0.1397,0.00000000,0.00000000,0.00000000,
0.1060,-0.1086,0.2647,1.0067,0.0000,0.0000,0.0000,-0.1254,-0.0480,0.1397,49.27884416,-122.98103131,0.00000000,
0.1720,-0.1086,0.2647,1.0067,0.0000,0.0000,0.0000,-0.0448,0.0539,0.2303,49.27884416,-122.98103131,0.00000000,
0.1730,-0.1272,0.2865,0.9664,0.0000,0.0000,0.0000,-0.0448,0.0539,0.2303,49.27884416,-122.98103131,0.00000000,
0.1900,-0.1272,0.2865,0.9664,0.0000,0.0000,0.0000,-0.0448,0.0539,0.2303,49.27884416,-122.98103131,0.00000000,
0.2290,-0.1272,0.2865,0.9664,0.0000,0.0000,0.0000,-0.1466,0.0651,0.1765,49.27884416,-122.98103131,0.00000000,
0.2300,-0.1037,0.2989,0.9309,0.0000,0.0000,0.0000,-0.1466,0.0651,0.1765,49.27884416,-122.98103131,0.00000000,
0.2470,-0.1037,0.2989,0.9309,0.0289,0.2566,-0.2913,-0.1466,0.0651,0.1765,49.27884416,-122.98103131,0.00000000,
0.3050,-0.1728,0.3504,0.9765,0.0289,0.2566,-0.2913,-0.1466,0.0651,0.1765,49.27884416,-122.98103131,0.00000000,
0.3060,-0.1728,0.3504,0.9765,0.0289,0.2566,-0.2913,-0.3157,0.4011,0.2617,49.27884416,-122.98103131,0.00000000,
0.3230,-0.1728,0.3504,0.9765,0.3210,0.2042,-0.1909,-0.3157,0.4011,0.2617,49.27884416,-122.98103131,0.00000000,
0.3610,-0.1728,0.3504,0.9765,0.3210,0.2042,-0.1909,0.3114,1.6821,0.7497,49.27884416,-122.98103131,0.00000000,
0.3630,-0.1957,0.5361,0.7285,0.3210,0.2042,-0.1909,0.3114,1.6821,0.7497,49.27884416,-122.98103131,0.00000000,
0.3810,-0.1957,0.5361,0.7285,0.3086,0.7562,0.2102,0.3114,1.6821,0.7497,49.27884416,-122.98103131,0.00000000,
0.4380,-0.1957,0.5361,0.7285,0.3086,0.7562,0.2102,-0.0703,1.7176,1.2634,49.27884416,-122.98103131,0.00000000,
0.4390,-0.3727,0.4325,0.7107,0.3086,0.7562,0.2102,-0.0703,1.7176,1.2634,49.27884416,-122.98103131,0.00000000,
0.4560,-0.3727,0.4325,0.7107,1.2859,1.3970,-2.0917,-0.0703,1.7176,1.2634,49.27884416,-122.98103131,0.00000000,
0.4950,-0.5299,0.3615,0.7759,1.2859,1.3970,-2.0917,-0.0703,1.7176,1.2634,49.27884416,-122.98103131,0.00000000,
0.4960,-0.5299,0.3615,0.7759,1.2859,1.3970,-2.0917,-0.1750,4.6609,2.1643,49.27884416,-122.98103131,0.00000000,
0.5130,-0.5299,0.3615,0.7759,0.1463,-0.5287,0.2946,-0.1750,4.6609,2.1643,49.27884416,-122.98103131,0.00000000,
0.5720,-0.5299,0.3615,0.7759,0.1463,-0.5287,0.2946,0.6575,3.6468,1.3782,49.27884416,-122.98103131,0.00000000,
0.5730,-0.6396,0.2649,0.6338,0.1463,-0.5287,0.2946,0.6575,3.6468,1.3782,49.27884416,-122.98103131,0.00000000,
0.5900,-0.6396,0.2649,0.6338,0.5786,-1.3041,1.7173,0.6575,3.6468,1.3782,49.27884416,-122.98103131,0.00000000,
0.6280,-0.6396,0.2649,0.6338,0.5786,-1.3041,1.7173,0.6305,1.7858,-0.3280,49.27884416,-122.98103131,0.00000000,
0.6300,-0.8169,0.1567,0.7992,0.5786,-1.3041,1.7173,0.6305,1.7858,-0.3280,49.27884416,-122.98103131,0.00000000,
0.6460,-0.8169,0.1567,0.7992,0.0352,-2.0516,0.9815,0.6305,1.7858,-0.3280,49.27884416,-122.98103131,0.00000000,
0.7040,-0.8726,0.2265,0.6098,0.0352,-2.0516,0.9815,0.6305,1.7858,-0.3280,49.27884416,-122.98103131,0.00000000,
0.7050,-0.8726,0.2265,0.6098,0.0352,-2.0516,0.9815,-0.0301,1.4891,-0.2879,49.27884416,-122.98103131,0.00000000,
0.7230,-0.8726,0.2265,0.6098,-1.9549,-2.1938,1.6833,-0.0301,1.4891,-0.2879,49.27884416,-122.98103131,0.00000000,
0.7630,-0.8726,0.2265,0.6098,-1.9549,-2.1938,1.6833,0.3760,0.4344,-0.5221,49.27884416,-122.98103131,0.00000000,
0.7640,-0.8071,0.4150,0.4847,-1.9549,-2.1938,1.6833,0.3760,0.4344,-0.5221,49.27884416,-122.98103131,0.00000000,
0.7810,-0.8071,0.4150,0.4847,-0.0277,-1.2163,1.7906,0.3760,0.4344,-0.5221,49.27884416,-122.98103131,0.00000000,
0.8370,-0.8294,0.4196,0.5566,-0.0277,-1.2163,1.7906,0.3760,0.4344,-0.5221,49.27884416,-122.98103131,0.00000000,
0.8380,-0.8294,0.4196,0.5566,-0.0277,-1.2163,1.7906,-0.4207,0.4630,-0.5167,49.27884416,-122.98103131,0.00000000,
0.8570,-0.8294,0.4196,0.5566,-0.4262,1.0451,-0.4805,-0.4207,0.4630,-0.5167,49.27884416,-122.98103131,0.00000000,
0.8950,-0.8294,0.4196,0.5566,-0.4262,1.0451,-0.4805,-0.3361,0.0902,-0.4345,49.27884416,-122.98103131,0.00000000,
0.8960,-0.8659,0.4491,0.5441,-0.4262,1.0451,-0.4805,-0.3361,0.0902,-0.4345,49.27884416,-122.98103131,0.00000000,
0.9130,-0.8659,0.4491,0.5441,0.0621,0.9770,0.8564,-0.3361,0.0902,-0.4345,49.27884416,-122.98103131,0.00000000,
0.9710,-0.9390,0.3318,0.4142,0.0621,0.9770,0.8564,-0.3361,0.0902,-0.4345,49.27884416,-122.98103131,0.00000000,
0.9720,-0.9390,0.3318,0.4142,0.0621,0.9770,0.8564,0.0985,-0.2046,-0.7926,49.27884416,-122.98103131,0.00000000,
0.9910,-0.9390,0.3318,0.4142,-0.7239,1.3624,-0.4320,0.0985,-0.2046,-0.7926,49.27884416,-122.98103131,0.00000000,
1.0280,-0.9390,0.3318,0.4142,-0.7239,1.3624,-0.4320,0.4165,-0.1466,-1.1333,49.27884416,-122.98103131,0.00000000,
1.0290,-0.9677,0.2793,0.4485,-0.7239,1.3624,-0.4320,0.4165,-0.1466,-1.1333,49.27884416,-122.98103131,0.00000000,
1.0460,-0.9677,0.2793,0.4485,-1.0341,0.9152,-0.5430,0.4165,-0.1466,-1.1333,49.27884416,-122.98103131,0.00000000,
1.1040,-0.9677,0.2793,0.4485,-1.0341,0.9152,-0.5430,0.7078,-0.2320,-0.2891,49.27884416,-122.98103131,0.00000000,
1.1050,-0.7513,0.2045,0.3594,-1.0341,0.9152,-0.5430,0.7078,-0.2320,-0.2891,49.27884416,-122.98103131,0.00000000,
1.1230,-0.7513,0.2045,0.3594,-0.6944,-0.4812,-0.8979,0.7078,-0.2320,-0.2891,49.27884416,-122.98103131,0.00000000,
1.1700,-0.7513,0.2045,0.3594,-0.6944,-0.4812,-0.8979,0.3997,-0.0358,-0.2471,49.27884416,-122.98103131,0.00000000,
1.1710,-0.9357,0.1582,0.4208,-0.6944,-0.4812,-0.8979,0.3997,-0.0358,-0.2471,49.27884416,-122.98103131,0.00000000,
1.1900,-0.9357,0.1582,0.4208,0.5258,-0.4294,-1.0227,0.3997,-0.0358,-0.2471,49.27884416,-122.98103131,0.00000000,
1.2280,-0.9357,0.1582,0.4208,0.5258,-0.4294,-1.0227,0.2866,0.0747,-0.0706,49.27884416,-122.98103131,0.00000000,
1.2290,-1.0562,0.1672,0.4958,0.5258,-0.4294,-1.0227,0.2866,0.0747,-0.0706,49.27884416,-122.98103131,0.00000000,
1.2470,-1.0562,0.1672,0.4958,-1.1853,-0.9296,-0.4858,0.2866,0.0747,-0.0706,49.27884416,-122.98103131,0.00000000,
1.3030,-1.0562,0.1672,0.4958,-1.1853,-0.9296,-0.4858,0.0220,0.0279,-0.1127,49.27884416,-122.98103131,0.00000000,
1.3040,-0.8872,0.1172,0.3586,-1.1853,-0.9296,-0.4858,0.0220,0.0279,-0.1127,49.27884416,-122.98103131,0.00000000,
1.3230,-0.8872,0.1172,0.3586,-1.2460,-0.7341,0.2035,0.0220,0.0279,-0.1127,49.27884416,-122.98103131,0.00000000,
1.3610,-0.8872,0.1172,0.3586,-1.2460,-0.7341,0.2035,0.0959,0.0565,0.2240,49.27884416,-122.98103131,0.00000000,
1.3630,-0.8242,0.1670,0.2496,-1.2460,-0.7341,0.2035,0.0959,0.0565,0.2240,49.27884416,-122.98103131,0.00000000,
1.3800,-0.8242,0.1670,0.2496,-0.2691,-1.6644,-1.6388,0.0959,0.0565,0.2240,49.27884416,-122.98103131,0.00000000,
1.4370,-0.8242,0.1670,0.2496,-0.2691,-1.6644,-1.6388,0.6137,-0.6064,0.4535,49.27884416,-122.98103131,0.00000000,
1.4370,-0.8213,0.4462,0.5485,-0.2691,-1.6644,-1.6388,0.6137,-0.6064,0.4535,49.27884416,-122.98103131,0.00000000,
1.4570,-0.8213,0.4462,0.5485,1.1444,0.2559,-1.9563,0.6137,-0.6064,0.4535,49.27884416,-122.98103131,0.00000000,
1.4940,-0.8213,0.4462,0.5485,1.1444,0.2559,-1.9563,0.6509,-0.2767,0.4483,49.27884416,-122.98103131,0.00000000,
1.4940,-0.8906,0.2751,0.3417,1.1444,0.2559,-1.9563,0.6509,-0.2767,0.4483,49.27884416,-122.98103131,0.00000000,
1.5130,-0.8906,0.2751,0.3417,-0.6533,0.1645,0.9240,0.6509,-0.2767,0.4483,49.27884416,-122.98103131,0.00000000,
1.5690,-0.8906,0.2751,0.3417,-0.6533,0.1645,0.9240,0.1182,0.6770,0.9387,49.27884416,-122.98103131,0.00000000,
1.5700,-0.8251,0.2583,0.3924,-0.6533,0.1645,0.9240,0.1182,0.6770,0.9387,49.27884416,-122.98103131,0.00000000,
1.5890,-0.8251,0.2583,0.3924,-1.1782,-2.0996,-0.8006,0.1182,0.6770,0.9387,49.27884416,-122.98103131,0.00000000,
1.6280,-0.8251,0.2583,0.3924,-1.1782,-2.0996,-0.8006,-0.2268,0.8562,1.4618,49.27884416,-122.98103131,0.00000000,
1.6280,-0.9755,0.2024,0.4109,-1.1782,-2.0996,-0.8006,-0.2268,0.8562,1.4618,49.27884416,-122.98103131,0.00000000,
1.6460,-0.9755,0.2024,0.4109,-0.5103,-1.6234,0.3741,-0.2268,0.8562,1.4618,49.27884416,-122.98103131,0.00000000,
1.7030,-0.9755,0.2024,0.4109,-0.5103,-1.6234,0.3741,-0.2234,1.0505,2.6547,49.27884416,-122.98103131,0.00000000,
1.7040,-0.6542,0.5039,0.1655,-0.5103,-1.6234,0.3741,-0.2234,1.0505,2.6547,49.27884416,-122.98103131,0.00000000,
1.7230,-0.6542,0.5039,0.1655,-2.0867,-4.2850,0.2681,-0.2234,1.0505,2.6547,49.27884416,-122.98103131,0.00000000,
1.7620,-0.6542,0.5039,0.1655,-2.0867,-4.2850,0.2681,0.0782,-0.4137,1.8418,49.27884416,-122.98103131,0.00000000,
1.7630,-0.5029,0.3687,0.3480,-2.0867,-4.2850,0.2681,0.0782,-0.4137,1.8418,49.27884416,-122.98103131,0.00000000,
1.7800,-0.5029,0.3687,0.3480,0.6288,-1.0719,-2.0329,0.0782,-0.4137,1.8418,49.27884416,-122.98103131,0.00000000,
1.8370,-0.5099,1.0409,0.1743,0.6288,-1.0719,-2.0329,0.0782,-0.4137,1.8418,49.27884416,-122.98103131,0.00000000,
1.8380,-0.5099,1.0409,0.1743,0.6288,-1.0719,-2.0329,-0.4370,-0.8125,1.5908,49.27884416,-122.98103131,0.00000000,
1.8570,-0.5099,1.0409,0.1743,1.7123,-2.1007,-1.5391,-0.4370,-0.8125,1.5908,49.27884416,-122.98103131,0.00000000,
1.8940,-0.4195,1.1612,0.6087,1.7123,-2.1007,-1.5391,-0.4370,-0.8125,1.5908,49.27884416,-122.98103131,0.00000000,
1.8950,-0.4195,1.1612,0.6087,1.7123,-2.1007,-1.5391,0.2816,0.0307,1.2897,49.27884416,-122.98103131,0.00000000,
1.9130,-0.4195,1.1612,0.6087,-1.5321,3.3543,0.0521,0.2816,0.0307,1.2897,49.27884416,-122.98103131,0.00000000,
1.9690,-0.5571,0.8746,0.2208,-1.5321,3.3543,0.0521,0.2816,0.0307,1.2897,49.27884416,-122.98103131,0.00000000,
1.9700,-0.5571,0.8746,0.2208,-1.5321,3.3543,0.0521,0.6942,-0.2974,0.9975,49.27884416,-122.98103131,0.00000000,
1.9920,-0.5571,0.8746,0.2208,0.6948,2.5710,0.9957,0.6942,-0.2974,0.9975,49.27884416,-122.98103131,0.00000000,
2.0270,-0.5571,0.8746,0.2208,0.6948,2.5710,0.9957,-0.4461,0.1024,0.5453,49.27884416,-122.98103131,0.00000000,
2.0270,-0.2624,0.7990,0.3356,0.6948,2.5710,0.9957,-0.4461,0.1024,0.5453,49.27884416,-122.98103131,0.00000000,
2.0450,-0.2624,0.7990,0.3356,-1.1126,0.3913,-2.3789,-0.4461,0.1024,0.5453,49.27884416,-122.98103131,0.00000000,
2.1030,-0.4478,0.8509,0.3714,-1.1126,0.3913,-2.3789,-0.4461,0.1024,0.5453,49.27884416,-122.98103131,0.00000000,
2.1040,-0.4478,0.8509,0.3714,-1.1126,0.3913,-2.3789,-0.0602,0.0284,0.1786,49.27884416,-122.98103131,0.00000000,
2.1220,-0.4478,0.8509,0.3714,0.4694,-0.5798,0.7036,-0.0602,0.0284,0.1786,49.27884416,-122.98103131,0.00000000,
2.1690,-0.4478,0.8509,0.3714,0.4694,-0.5798,0.7036,0.3441,-1.0059,0.6851,49.27884416,-122.98103131,0.00000000,
2.1700,-0.5467,0.7516,0.3980,0.4694,-0.5798,0.7036,0.3441,-1.0059,0.6851,49.27884416,-122.98103131,0.00000000,
2.1890,-0.5467,0.7516,0.3980,-1.6881,-0.1933,-0.2717,0.3441,-1.0059,0.6851,49.27884416,-122.98103131,0.00000000,
2.2260,-0.4812,0.8458,0.3856,-1.6881,-0.1933,-0.2717,0.3441,-1.0059,0.6851,49.27884416,-122.98103131,0.00000000,
2.2270,-0.4812,0.8458,0.3856,-1.6881,-0.1933,-0.2717,0.5207,-0.9256,1.4037,49.27884416,-122.98103131,0.00000000,
2.2450,-0.4812,0.8458,0.3856,-2.2299,-1.2385,-0.1864,0.5207,-0.9256,1.4037,49.27884416,-122.98103131,0.00000000,
2.3030,0.1782,0.8480,0.0733,-2.2299,-1.2385,-0.1864,0.5207,-0.9256,1.4037,49.27884416,-122.98103131,0.00000000,
2.3030,0.1782,0.8480,0.0733,-2.2299,-1.2385,-0.1864,0.0791,-0.3114,1.6657,49.27884416,-122.98103131,0.00000000,
2.3240,0.1782,0.8480,0.0733,-2.8543,-0.5364,-0.6581,0.0791,-0.3114,1.6657,49.27884416,-122.98103131,0.00000000,
2.3600,-0.0356,1.0753,0.5175,-2.8543,-0.5364,-0.6581,0.0791,-0.3114,1.6657,49.27884416,-122.98103131,0.00000000,
2.3610,-0.0356,1.0753,0.5175,-2.8543,-0.5364,-0.6581,-0.2637,-0.3383,0.6769,49.27884416,-122.98103131,0.00000000,
2.3800,-0.0356,1.0753,0.5175,3.0859,-0.3630,-2.0774,-0.2637,-0.3383,0.6769,49.27884416,-122.98103131,0.00000000,
2.4360,0.0639,0.9575,0.2820,3.0859,-0.3630,-2.0774,-0.2637,-0.3383,0.6769,49.27884416,-122.98103131,0.00000000,
2.4360,0.0639,0.9575,0.2820,3.0859,-0.3630,-2.0774,-0.1139,0.2785,0.3996,49.27884416,-122.98103131,0.00000000,
2.4550,0.0639,0.9575,0.2820,0.6104,1.6945,0.4912,-0.1139,0.2785,0.3996,49.27884416,-122.98103131,0.00000000,
2.4930,-0.0181,0.9860,0.5512,0.6104,1.6945,0.4912,-0.1139,0.2785,0.3996,49.27884416,-122.98103131,0.00000000,
2.4940,-0.0181,0.9860,0.5512,0.6104,1.6945,0.4912,-0.2694,1.0297,0.3940,49.27884416,-122.98103131,0.00000000,
2.5120,-0.0181,0.9860,0.5512,1.1538,0.4296,-0.5811,-0.2694,1.0297,0.3940,49.27884416,-122.98103131,0.00000000,
2.5690,-0.0181,0.9860,0.5512,1.1538,0.4296,-0.5811,0.0693,1.5709,0.2036,49.27884416,-122.98103131,0.00000000,
2.5700,-0.0889,1.0130,0.3746,1.1538,0.4296,-0.5811,0.0693,1.5709,0.2036,49.27884416,-122.98103131,0.00000000,
2.5880,-0.0889,1.0130,0.3746,0.9170,0.5415,1.5554,0.0693,1.5709,0.2036,49.27884416,-122.98103131,0.00000000,
2.6260,-0.1785,0.9080,0.2809,0.9170,0.5415,1.5554,0.0693,1.5709,0.2036,49.27884416,-122.98103131,0.00000000,
2.6270,-0.1785,0.9080,0.2809,0.9170,0.5415,1.5554,0.0191,0.6192,-0.0305,49.27884416,-122.98103131,0.00000000,
2.6470,-0.1785,0.9080,0.2809,-0.2366,1.0851,-0.3298,0.0191,0.6192,-0.0305,49.27884416,-122.98103131,0.00000000,
2.7030,-0.0870,0.8001,0.5088,-0.2366,1.0851,-0.3298,0.0191,0.6192,-0.0305,49.27884416,-122.98103131,0.00000000,
2.7040,-0.0870,0.8001,0.5088,-0.2366,1.0851,-0.3298,0.0065,0.3555,0.1683,49.27884416,-122.98103131,0.00000000,
2.7240,-0.0870,0.8001,0.5088,-0.4054,-0.8752,-1.0357,0.0065,0.3555,0.1683,49.27884416,-122.98103131,0.00000000,
2.7600,-0.0870,0.8001,0.5088,-0.4054,-0.8752,-1.0357,0.5558,1.1460,0.2896,49.27884416,-122.98103131,0.00000000,
2.7610,-0.1910,1.1754,0.2551,-0.4054,-0.8752,-1.0357,0.5558,1.1460,0.2896,49.27884416,-122.98103131,0.00000000,
2.7800,-0.1910,1.1754,0.2551,1.0194,-0.9752,2.0268,0.5558,1.1460,0.2896,49.27884416,-122.98103131,0.00000000,
2.8360,-0.1910,1.1754,0.2551,1.0194,-0.9752,2.0268,-0.4497,0.7152,0.1062,49.27884416,-122.98103131,0.00000000,
2.8360,0.0502,0.8750,0.2518,1.0194,-0.9752,2.0268,-0.4497,0.7152,0.1062,49.27884416,-122.98103131,0.00000000,
2.8560,0.0502,0.8750,0.2518,-0.1341,2.1125,-3.1467,-0.4497,0.7152,0.1062,49.27884416,-122.98103131,0.00000000,
2.8930,0.0502,0.8750,0.2518,-0.1341,2.1125,-3.1467,-0.1272,0.3972,0.0671,49.27884416,-122.98103131,0.00000000,
2.8940,-0.1373,0.9763,0.3211,-0.1341,2.1125,-3.1467,-0.1272,0.3972,0.0671,49.27884416,-122.98103131,0.00000000,
2.9120,-0.1373,0.9763,0.3211,1.2358,-0.2703,0.5886,-0.1272,0.3972,0.0671,49.27884416,-122.98103131,0.00000000,
2.9700,-0.1547,1.0041,0.4193,1.2358,-0.2703,0.5886,-0.1272,0.3972,0.0671,49.27884416,-122.98103131,0.00000000,
2.9710,-0.1547,1.0041,0.4193,1.2358,-0.2703,0.5886,-0.0197,0.4494,0.1017,49.27884416,-122.98103131,0.00000000,
2.9910,-0.1547,1.0041,0.4193,0.3869,0.2301,-0.1597,-0.0197,0.4494,0.1017,49.27884416,-122.98103131,0.00000000,
3.0270,-0.1547,1.0041,0.4193,0.3869,0.2301,-0.1597,-0.1495,-0.3555,0.2172,49.27884416,-122.98103131,0.00000000,
3.0280,0.0590,0.7765,0.1747,0.3869,0.2301,-0.1597,-0.1495,-0.3555,0.2172,49.27884416,-122.98103131,0.00000000,
3.0450,0.0590,0.7765,0.1747,-1.0551,1.7839,0.2154,-0.1495,-0.3555,0.2172,49.27884416,-122.98103131,0.00000000,
3.1040,0.0590,0.7765,0.1747,-1.0551,1.7839,0.2154,-0.1642,0.1591,0.2467,49.27884416,-122.98103131,0.00000000,
3.1050,-0.0526,0.9831,0.6223,-1.0551,1.7839,0.2154,-0.1642,0.1591,0.2467,49.27884416,-122.98103131,0.00000000,
3.1230,-0.0526,0.9831,0.6223,2.1372,-2.4345,-1.0962,-0.1642,0.1591,0.2467,49.27884416,-122.98103131,0.00000000,
3.1690,-0.0526,0.9831,0.6223,2.1372,-2.4345,-1.0962,0.3831,0.3712,0.2237,49.27884416,-122.98103131,0.00000000,
3.1700,-0.1450,1.0219,0.1595,2.1372,-2.4345,-1.0962,0.3831,0.3712,0.2237,49.27884416,-122.98103131,0.00000000,
3.1880,-0.1450,1.0219,0.1595,0.7174,1.9015,2.4870,0.3831,0.3712,0.2237,49.27884416,-122.98103131,0.00000000,
3.2270,-0.0276,0.9419,0.0645,0.7174,1.9015,2.4870,0.3831,0.3712,0.2237,49.27884416,-122.98103131,0.00000000,
3.2280,-0.0276,0.9419,0.0645,0.7174,1.9015,2.4870,-0.4002,-0.1634,0.1203,49.27884416,-122.98103131,0.00000000,
3.2450,-0.0276,0.9419,0.0645,-1.3972,-0.3999,-3.7379,-0.4002,-0.1634,0.1203,49.27884416,-122.98103131,0.00000000,
3.3050,-0.0276,0.9419,0.0645,-1.3972,-0.3999,-3.7379,-0.8019,-0.7816,-0.4991,49.27884416,-122.98103131,0.00000000,
3.3060,-0.0814,0.8782,0.8127,-1.3972,-0.3999,-3.7379,-0.8019,-0.7816,-0.4991,49.27884416,-122.98103131,0.00000000,
3.3220,-0.0814,0.8782,0.8127,1.7651,0.7546,-2.7396,-0.8019,-0.7816,-0.4991,49.27884416,-122.98103131,0.00000000,
3.3600,-0.0814,0.8782,0.8127,1.7651,0.7546,-2.7396,0.2716,0.5498,-0.0544,49.27884416,-122.98103131,0.00000000,
3.3610,0.1039,1.0176,0.3713,1.7651,0.7546,-2.7396,0.2716,0.5498,-0.0544,49.27884416,-122.98103131,0.00000000,
3.3790,0.1039,1.0176,0.3713,-0.0998,-0.2274,5.0709,0.2716,0.5498,-0.0544,49.27884416,-122.98103131,0.00000000,
3.4380,0.1039,1.0176,0.3713,-0.0998,-0.2274,5.0709,-0.2155,-1.4361,-1.0893,49.27884416,-122.98103131,0.00000000,
3.4400,-0.0684,0.9243,0.2404,-0.0998,-0.2274,5.0709,-0.2155,-1.4361,-1.0893,49.27884416,-122.98103131,0.00000000,
3.4550,-0.0684,0.9243,0.2404,3.4654,1.6520,-2.9096,-0.2155,-1.4361,-1.0893,49.27884416,-122.98103131,0.00000000,
3.4940,-0.0684,0.9243,0.2404,3.4654,1.6520,-2.9096,0.0004,-0.1988,-0.3029,49.27884416,-122.98103131,0.00000000,
3.4950,-0.2546,0.8451,0.7400,3.4654,1.6520,-2.9096,0.0004,-0.1988,-0.3029,49.27884416,-122.98103131,0.00000000,
3.5130,-0.2546,0.8451,0.7400,-1.1430,-0.2642,0.3187,0.0004,-0.1988,-0.3029,49.27884416,-122.98103131,0.00000000,
3.5700,-0.0995,0.8769,0.1454,-1.1430,-0.2642,0.3187,0.0004,-0.1988,-0.3029,49.27884416,-122.98103131,0.00000000,
3.5710,-0.0995,0.8769,0.1454,-1.1430,-0.2642,0.3187,0.4142,-0.2754,-0.6279,49.27884416,-122.98103131,0.00000000,
3.5880,-0.0995,0.8769,0.1454,0.5888,-0.3802,1.3782,0.4142,-0.2754,-0.6279,49.27884416,-122.98103131,0.00000000,
3.6260,-0.0995,0.8769,0.1454,0.5888,-0.3802,1.3782,0.0681,-1.2678,-0.1251,49.27884416,-122.98103131,0.00000000,
3.6270,-0.3188,0.8354,0.5855,0.5888,-0.3802,1.3782,0.0681,-1.2678,-0.1251,49.27884416,-122.98103131,0.00000000,
3.6450,-0.3188,0.8354,0.5855,-0.7644,-0.2919,-2.0007,0.0681,-1.2678,-0.1251,49.27884416,-122.98103131,0.00000000,
3.7030,-0.3188,0.8354,0.5855,-0.7644,-0.2919,-2.0007,0.3350,-0.3713,0.1055,49.27884416,-122.98103131,0.00000000,
3.7050,-0.1182,0.9656,0.3533,-0.7644,-0.2919,-2.0007,0.3350,-0.3713,0.1055,49.27884416,-122.98103131,0.00000000,
3.7220,-0.1182,0.9656,0.3533,-1.0756,-0.3106,1.7274,0.3350,-0.3713,0.1055,49.27884416,-122.98103131,0.00000000,
3.7590,-0.1506,0.9027,0.4373,-1.0756,-0.3106,1.7274,0.3350,-0.3713,0.1055,49.27884416,-122.98103131,0.00000000,
3.7600,-0.1506,0.9027,0.4373,-1.0756,-0.3106,1.7274,-0.0916,-0.2014,0.1666,49.27884416,-122.98103131,0.00000000,
3.7780,-0.1506,0.9027,0.4373,-0.2030,0.2204,-0.8072,-0.0916,-0.2014,0.1666,49.27884416,-122.98103131,0.00000000,
3.8360,-0.1506,0.9027,0.4373,-0.2030,0.2204,-0.8072,-0.3618,0.2152,0.4511,49.27884416,-122.98103131,0.00000000,
3.8380,-0.2513,0.7436,0.3454,-0.2030,0.2204,-0.8072,-0.3618,0.2152,0.4511,49.27884416,-122.98103131,0.00000000,
3.8550,-0.2513,0.7436,0.3454,-0.2760,0.1105,-0.0101,-0.3618,0.2152,0.4511,49.27884416,-122.98103131,0.00000000,
3.8940,-0.2513,0.7436,0.3454,-0.2760,0.1105,-0.0101,0.4149,-1.0603,0.6726,49.27884416,-122.98103131,0.00000000,
3.8950,0.0805,1.0345,0.5976,-0.2760,0.1105,-0.0101,0.4149,-1.0603,0.6726,49.27884416,-122.98103131,0.00000000,
3.9120,0.0805,1.0345,0.5976,-2.5577,-0.9104,-0.2314,0.4149,-1.0603,0.6726,49.27884416,-122.98103131,0.00000000,
3.9710,0.0805,1.0345,0.5976,-2.5577,-0.9104,-0.2314,0.6994,-0.4641,0.2778,49.27884416,-122.98103131,0.00000000,
3.9730,-0.1316,1.0503,0.4361,-2.5577,-0.9104,-0.2314,0.6994,-0.4641,0.2778,49.27884416,-122.98103131,0.00000000,
3.9880,-0.1316,1.0503,0.4361,1.2998,-0.4190,1.4011,0.6994,-0.4641,0.2778,49.27884416,-122.98103131,0.00000000,
4.0250,0.0128,0.8971,-0.0017,1.2998,-0.4190,1.4011,0.6994,-0.4641,0.2778,49.27884416,-122.98103131,0.00000000,
4.0260,0.0128,0.8971,-0.0017,1.2998,-0.4190,1.4011,0.7170,-1.2909,0.8501,49.27884416,-122.98103131,0.00000000,
4.0450,0.0128,0.8971,-0.0017,-2.6174,1.9028,1.4590,0.7170,-1.2909,0.8501,49.27884416,-122.98103131,0.00000000,
4.1040,0.6878,0.8540,0.3160,-2.6174,1.9028,1.4590,0.7170,-1.2909,0.8501,49.27884416,-122.98103131,0.00000000,
4.1060,0.6878,0.8540,0.3160,-2.6174,1.9028,1.4590,-0.6478,-0.1835,0.2196,49.27884416,-122.98103131,0.00000000,
4.1220,0.6878,0.8540,0.3160,0.4336,-0.5372,-4.1593,-0.6478,-0.1835,0.2196,49.27884416,-122.98103131,0.00000000,
4.1590,0.6878,0.8540,0.3160,0.4336,-0.5372,-4.1593,-0.4190,-0.8697,-1.8356,49.27884416,-122.98103131,0.00000000,
4.1600,-0.0217,1.2673,0.3297,0.4336,-0.5372,-4.1593,-0.4190,-0.8697,-1.8356,49.27884416,-122.98103131,0.00000000,
4.1780,-0.0217,1.2673,0.3297,7.3505,0.6902,1.0048,-0.4190,-0.8697,-1.8356,49.27884416,-122.98103131,0.00000000,
4.2340,-0.0217,1.2673,0.3297,7.3505,0.6902,1.0048,-1.1159,0.3175,-0.5090,49.27884416,-122.98103131,0.00000000,
4.2350,-0.1711,0.6720,0.5543,7.3505,0.6902,1.0048,-1.1159,0.3175,-0.5090,49.27884416,-122.98103131,0.00000000,
4.2540,-0.1711,0.6720,0.5543,-1.1475,1.2547,-3.4888,-1.1159,0.3175,-0.5090,49.27884416,-122.98103131,0.00000000,
4.2940,-0.1711,0.6720,0.5543,-1.1475,1.2547,-3.4888,0.3795,0.1640,0.7417,49.27884416,-122.98103131,0.00000000,
4.2950,-0.0762,0.7520,0.4203,-1.1475,1.2547,-3.4888,0.3795,0.1640,0.7417,49.27884416,-122.98103131,0.00000000,
4.3120,-0.0762,0.7520,0.4203,-2.9327,-1.6901,2.8628,0.3795,0.1640,0.7417,49.27884416,-122.98103131,0.00000000,
4.3690,-0.0762,0.7520,0.4203,-2.9327,-1.6901,2.8628,0.3692,-0.4823,0.3336,49.27884416,-122.98103131,0.00000000,
4.3710,0.1333,1.1332,0.4211,-2.9327,-1.6901,2.8628,0.3692,-0.4823,0.3336,49.27884416,-122.98103131,0.00000000,
4.3880,0.1333,1.1332,0.4211,-0.5930,-2.6081,-0.8805,0.3692,-0.4823,0.3336,49.27884416,-122.98103131,0.00000000,
4.4250,0.1333,1.1332,0.4211,-0.5930,-2.6081,-0.8805,0.1597,0.3417,-0.6260,49.27884416,-122.98103131,0.00000000,
4.4260,0.1860,1.2491,0.4913,-0.5930,-2.6081,-0.8805,0.1597,0.3417,-0.6260,49.27884416,-122.98103131,0.00000000,
4.4450,0.1860,1.2491,0.4913,2.8047,4.1526,1.7319,0.1597,0.3417,-0.6260,49.27884416,-122.98103131,0.00000000,
4.5010,0.1860,1.2491,0.4913,2.8047,4.1526,1.7319,0.8076,1.0487,-0.3816,49.27884416,-122.98103131,0.00000000,
4.5030,-0.0502,0.9424,0.2814,2.8047,4.1526,1.7319,0.8076,1.0487,-0.3816,49.27884416,-122.98103131,0.00000000,
4.5220,-0.0502,0.9424,0.2814,0.8070,2.5003,1.3460,0.8076,1.0487,-0.3816,49.27884416,-122.98103131,0.00000000,
4.5590,-0.0855,0.8890,0.4936,0.8070,2.5003,1.3460,0.8076,1.0487,-0.3816,49.27884416,-122.98103131,0.00000000,
4.5600,-0.0855,0.8890,0.4936,0.8070,2.5003,1.3460,1.1406,-0.9882,-0.5523,49.27884416,-122.98103131,0.00000000,
4.5770,-0.0855,0.8890,0.4936,0.7110,-0.8332,-0.4112,1.1406,-0.9882,-0.5523,49.27884416,-122.98103131,0.00000000,
4.6350,-0.0855,0.8890,0.4936,0.7110,-0.8332,-0.4112,0.8348,-0.0320,-0.4808,49.27884416,-122.98103131,0.00000000,
4.6360,-0.0807,0.6564,0.0528,0.7110,-0.8332,-0.4112,0.8348,-0.0320,-0.4808,49.27884416,-122.98103131,0.00000000,
4.6530,-0.0807,0.6564,0.0528,0.2367,-1.5907,2.6279,0.8348,-0.0320,-0.4808,49.27884416,-122.98103131,0.00000000,
4.6950,-0.0807,0.6564,0.0528,0.2367,-1.5907,2.6279,0.0852,0.9269,-0.0296,49.27884416,-122.98103131,0.00000000,
4.6950,-0.1576,0.7743,0.2603,0.2367,-1.5907,2.6279,0.0852,0.9269,-0.0296,49.27884416,-122.98103131,0.00000000,
4.7120,-0.1576,0.7743,0.2603,0.3175,-3.0815,-2.2961,0.0852,0.9269,-0.0296,49.27884416,-122.98103131,0.00000000,
4.7680,-0.2058,0.7945,0.2705,0.3175,-3.0815,-2.2961,0.0852,0.9269,-0.0296,49.27884416,-122.98103131,0.00000000,
4.7690,-0.2058,0.7945,0.2705,0.3175,-3.0815,-2.2961,0.1898,0.2534,0.3211,49.27884416,-122.98103131,0.00000000,
4.7870,-0.2058,0.7945,0.2705,-1.5321,-1.6863,1.2757,0.1898,0.2534,0.3211,49.27884416,-122.98103131,0.00000000,
4.8400,-0.0047,0.9642,-0.0363,-1.5321,-1.6863,1.2757,0.1898,0.2534,0.3211,49.27884416,-122.98103131,0.00000000,
4.8410,-0.0047,0.9642,-0.0363,-1.5321,-1.6863,1.2757,0.6367,-0.5823,0.2971,49.27884416,-122.98103131,0.00000000,
4.8450,-0.0047,0.9642,-0.0363,-0.9430,-1.7107,0.8558,0.6367,-0.5823,0.2971,49.27884416,-122.98103131,0.00000000,
4.9010,-0.0047,0.9642,-0.0363,-0.9430,-1.7107,0.8558,-0.1699,-0.9296,0.3650,49.27884416,-122.98103131,0.00000000,
4.9020,0.0192,1.2112,0.0461,-0.9430,-1.7107,0.8558,-0.1699,-0.9296,0.3650,49.27884416,-122.98103131,0.00000000,
4.9200,0.0192,1.2112,0.0461,0.6855,0.7971,-2.8685,-0.1699,-0.9296,0.3650,49.27884416,-122.98103131,0.00000000,
4.9570,0.1158,0.9998,0.2972,0.6855,0.7971,-2.8685,-0.1699,-0.9296,0.3650,49.27884416,-122.98103131,0.00000000,
4.9580,0.1158,0.9998,0.2972,0.6855,0.7971,-2.8685,-0.3441,0.2736,-0.1991,49.27884416,-122.98103131,0.00000000,
4.9780,0.1158,0.9998,0.2972,1.1385,2.0554,-0.2696,-0.3441,0.2736,-0.1991,49.27884416,-122.98103131,0.00000000,
5.0330,-0.0624,1.0072,0.0886,1.1385,2.0554,-0.2696,-0.3441,0.2736,-0.1991,49.27884416,-122.98103131,0.00000000,
5.0340,-0.0624,1.0072,0.0886,1.1385,2.0554,-0.2696,-0.4860,-0.5376,-0.2472,49.27884416,-122.98103131,0.00000000,
5.0530,-0.0624,1.0072,0.0886,1.1549,-0.4709,-0.3061,-0.4860,-0.5376,-0.2472,49.27884416,-122.98103131,0.00000000,
5.0920,-0.0624,1.0072,0.0886,1.1549,-0.4709,-0.3061,0.0018,0.1490,-0.0062,49.27884416,-122.98103131,0.00000000,
5.0920,-0.1534,1.3901,0.3562,1.1549,-0.4709,-0.3061,0.0018,0.1490,-0.0062,49.27884416,-122.98103131,0.00000000,
5.1100,-0.1534,1.3901,0.3562,-0.8360,2.5710,-0.1012,0.0018,0.1490,-0.0062,49.27884416,-122.98103131,0.00000000,
5.1580,-0.0643,0.8334,0.1234,-0.8360,2.5710,-0.1012,0.0018,0.1490,-0.0062,49.27884416,-122.98103131,0.00000000,
5.1590,-0.0643,0.8334,0.1234,-0.8360,2.5710,-0.1012,0.0681,0.0291,0.4556,49.27884416,-122.98103131,0.00000000,
5.1770,-0.0643,0.8334,0.1234,-0.9540,1.5926,0.5119,0.0681,0.0291,0.4556,49.27884416,-122.98103131,0.00000000,
5.2340,0.1352,0.9557,0.2871,-0.9540,1.5926,0.5119,0.0681,0.0291,0.4556,49.27884416,-122.98103131,0.00000000,
5.2350,0.1352,0.9557,0.2871,-0.9540,1.5926,0.5119,-0.1504,-0.1903,-0.0275,49.27884416,-122.98103131,0.00000000,
5.2530,0.1352,0.9557,0.2871,0.8960,-0.8853,-0.9717,-0.1504,-0.1903,-0.0275,49.27884416,-122.98103131,0.00000000,
5.2920,0.1352,0.9557,0.2871,0.8960,-0.8853,-0.9717,0.4231,-0.1943,-0.1668,49.27884416,-122.98103131,0.00000000,
5.2920,-0.1748,0.9768,0.1908,0.8960,-0.8853,-0.9717,0.4231,-0.1943,-0.1668,49.27884416,-122.98103131,0.00000000,
5.3100,-0.1748,0.9768,0.1908,0.7142,-0.5508,1.0973,0.4231,-0.1943,-0.1668,49.27884416,-122.98103131,0.00000000,
5.3670,-0.0924,0.9041,0.1307,0.7142,-0.5508,1.0973,0.4231,-0.1943,-0.1668,49.27884416,-122.98103131,0.00000000,
5.3680,-0.0924,0.9041,0.1307,0.7142,-0.5508,1.0973,-0.2522,0.2236,0.4424,49.27884416,-122.98103131,0.00000000,
5.3870,-0.0924,0.9041,0.1307,-1.5459,-0.0329,-1.1001,-0.2522,0.2236,0.4424,49.27884416,-122.98103131,0.00000000,
5.4250,-0.0409,0.7822,0.2256,-1.5459,-0.0329,-1.1001,-0.2522,0.2236,0.4424,49.27884416,-122.98103131,0.00000000,
5.4260,-0.0409,0.7822,0.2256,-1.5459,-0.0329,-1.1001,-0.1827,0.1962,1.2356,49.27884416,-122.98103131,0.00000000,
5.4450,-0.0409,0.7822,0.2256,-1.7080,-0.4606,-0.3037,-0.1827,0.1962,1.2356,49.27884416,-122.98103131,0.00000000,
5.5010,-0.0409,0.7822,0.2256,-1.7080,-0.4606,-0.3037,-0.1244,0.0330,2.1055,49.27884416,-122.98103131,0.00000000,
5.5020,0.4339,1.0749,0.2867,-1.7080,-0.4606,-0.3037,-0.1244,0.0330,2.1055,49.27884416,-122.98103131,0.00000000,
5.5200,0.4339,1.0749,0.2867,-1.9102,-2.4447,-0.4115,-0.1244,0.0330,2.1055,49.27884416,-122.98103131,0.00000000,
5.5580,0.4339,1.0749,0.2867,-1.9102,-2.4447,-0.4115,0.1002,0.1049,0.3697,49.27884416,-122.98103131,0.00000000,
5.5590,0.5546,1.3107,0.1204,-1.9102,-2.4447,-0.4115,0.1002,0.1049,0.3697,49.27884416,-122.98103131,0.00000000,
5.5770,0.5546,1.3107,0.1204,3.3564,4.1011,0.6849,0.1002,0.1049,0.3697,49.27884416,-122.98103131,0.00000000,
5.6350,0.0529,0.7878,0.2931,3.3564,4.1011,0.6849,0.1002,0.1049,0.3697,49.27884416,-122.98103131,0.00000000,
5.6360,0.0529,0.7878,0.2931,3.3564,4.1011,0.6849,-0.4623,0.2290,-0.0978,49.27884416,-122.98103131,0.00000000,
5.6540,0.0529,0.7878,0.2931,1.9509,1.3569,-2.2390,-0.4623,0.2290,-0.0978,49.27884416,-122.98103131,0.00000000,
5.6940,0.3005,1.0273,0.3037,1.9509,1.3569,-2.2390,-0.4623,0.2290,-0.0978,49.27884416,-122.98103131,0.00000000,
5.6950,0.3005,1.0273,0.3037,1.9509,1.3569,-2.2390,-0.0729,0.3075,0.1268,49.27884416,-122.98103131,0.00000000,
5.7100,0.3005,1.0273,0.3037,-1.1103,-1.2016,0.9309,-0.0729,0.3075,0.1268,49.27884416,-122.98103131,0.00000000,
5.7680,0.3005,1.0273,0.3037,-1.1103,-1.2016,0.9309,-0.1190,0.3366,0.0718,49.27884416,-122.98103131,0.00000000,
5.7690,0.2868,0.9660,0.3004,-1.1103,-1.2016,0.9309,-0.1190,0.3366,0.0718,49.27884416,-122.98103131,0.00000000,
5.7870,0.2868,0.9660,0.3004,0.8209,0.8321,0.2240,-0.1190,0.3366,0.0718,49.27884416,-122.98103131,0.00000000,
5.8250,0.2868,0.9660,0.3004,0.8209,0.8321,0.2240,-0.0368,0.5709,0.2713,49.27884416,-122.98103131,0.00000000,
5.8260,0.3105,0.8693,0.2984,0.8209,0.8321,0.2240,-0.0368,0.5709,0.2713,49.27884416,-122.98103131,0.00000000,
5.8450,0.3105,0.8693,0.2984,1.0315,-0.1794,0.0755,-0.0368,0.5709,0.2713,49.27884416,-122.98103131,0.00000000,
5.9030,0.3105,0.8693,0.2984,1.0315,-0.1794,0.0755,0.0515,0.5723,0.1839,49.27884416,-122.98103131,0.00000000,
5.9040,0.1831,1.0044,0.3375,1.0315,-0.1794,0.0755,0.0515,0.5723,0.1839,49.27884416,-122.98103131,0.00000000,
5.9210,0.1831,1.0044,0.3375,0.3759,-0.1475,-0.2780,0.0515,0.5723,0.1839,49.27884416,-122.98103131,0.00000000,
5.9590,0.2156,0.9343,0.3487,0.3759,-0.1475,-0.2780,0.0515,0.5723,0.1839,49.27884416,-122.98103131,0.00000000,
5.9600,0.2156,0.9343,0.3487,0.3759,-0.1475,-0.2780,0.0919,0.4112,0.1909,49.27884416,-122.98103131,0.00000000,
5.9780,0.2156,0.9343,0.3487,-0.6022,0.5974,0.5984,0.0919,0.4112,0.1909,49.27884416,-122.98103131,0.00000000,
6.0330,0.2156,0.9343,0.3487,-0.6022,0.5974,0.5984,0.1501,0.2096,0.1383,49.27884416,-122.98103131,0.00000000,
6.0340,0.2309,0.9085,0.3697,-0.6022,0.5974,0.5984,0.1501,0.2096,0.1383,49.27884416,-122.98103131,0.00000000,
6.0530,0.2309,0.9085,0.3697,0.0332,-0.2213,0.6546,0.1501,0.2096,0.1383,49.27884416,-122.98103131,0.00000000,
6.0910,0.2624,0.9939,0.3326,0.0332,-0.2213,0.6546,0.1501,0.2096,0.1383,49.27884416,-122.98103131,0.00000000,
6.0920,0.2624,0.9939,0.3326,0.0332,-0.2213,0.6546,0.2086,-0.0197,0.0221,49.27884416,-122.98103131,0.00000000,
6.1090,0.2624,0.9939,0.3326,0.0266,-0.2787,0.7138,0.2086,-0.0197,0.0221,49.27884416,-122.98103131,0.00000000,
6.1560,0.2624,0.9939,0.3326,0.0266,-0.2787,0.7138,0.2629,-0.4660,-0.3123,49.27884416,-122.98103131,0.00000000,
6.1570,0.1616,0.9075,0.3635,0.0266,-0.2787,0.7138,0.2629,-0.4660,-0.3123,49.27884416,-122.98103131,0.00000000,
6.1760,0.1616,0.9075,0.3635,0.3710,0.9575,1.0212,0.2629,-0.4660,-0.3123,49.27884416,-122.98103131,0.00000000,
6.2340,0.1616,0.9075,0.3635,0.3710,0.9575,1.0212,0.4854,-0.1238,-0.4095,49.27884416,-122.98103131,0.00000000,
6.2350,0.2651,0.8110,0.3073,0.3710,0.9575,1.0212,0.4854,-0.1238,-0.4095,49.27884416,-122.98103131,0.00000000,
6.2540,0.2651,0.8110,0.3073,0.0150,-1.5926,0.9486,0.4854,-0.1238,-0.4095,49.27884416,-122.98103131,0.00000000,
6.2910,0.2414,0.7269,0.1736,0.0150,-1.5926,0.9486,0.4854,-0.1238,-0.4095,49.27884416,-122.98103131,0.00000000,
6.2920,0.2414,0.7269,0.1736,0.0150,-1.5926,0.9486,0.9211,0.0433,-0.0390,49.27884416,-122.98103131,0.00000000,
6.3090,0.2414,0.7269,0.1736,0.3585,-2.5377,1.2993,0.9211,0.0433,-0.0390,49.27884416,-122.98103131,0.00000000,
6.3690,0.2414,0.7269,0.1736,0.3585,-2.5377,1.2993,0.8467,0.2279,-0.2919,49.27884416,-122.98103131,0.00000000,
6.3710,0.3060,1.2977,0.1084,0.3585,-2.5377,1.2993,0.8467,0.2279,-0.2919,49.27884416,-122.98103131,0.00000000,
6.3870,0.3060,1.2977,0.1084,1.1742,-0.1127,0.2155,0.8467,0.2279,-0.2919,49.27884416,-122.98103131,0.00000000,
6.4250,0.3060,1.2977,0.1084,1.1742,-0.1127,0.2155,0.5819,0.3702,-0.3717,49.27884416,-122.98103131,0.00000000,
6.4260,0.1730,0.8853,0.0643,1.1742,-0.1127,0.2155,0.5819,0.3702,-0.3717,49.27884416,-122.98103131,0.00000000,
6.4460,0.1730,0.8853,0.0643,1.0303,1.8666,0.3532,0.5819,0.3702,-0.3717,49.27884416,-122.98103131,0.00000000,
6.5010,0.1730,0.8853,0.0643,1.0303,1.8666,0.3532,0.4257,0.4405,-0.0132,49.27884416,-122.98103131,0.00000000,
6.5020,0.1972,0.9568,0.0560,1.0303,1.8666,0.3532,0.4257,0.4405,-0.0132,49.27884416,-122.98103131,0.00000000,
6.5210,0.1972,0.9568,0.0560,0.6056,-1.0837,0.0657,0.4257,0.4405,-0.0132,49.27884416,-122.98103131,0.00000000,
6.5570,0.0457,1.0987,-0.0492,0.6056,-1.0837,0.0657,0.4257,0.4405,-0.0132,49.27884416,-122.98103131,0.00000000,
6.5580,0.0457,1.0987,-0.0492,0.6056,-1.0837,0.0657,0.4582,0.3560,-0.0743,49.27884416,-122.98103131,0.00000000,
6.5770,0.0457,1.0987,-0.0492,-0.0620,0.1350,-0.2496,0.4582,0.3560,-0.0743,49.27884416,-122.98103131,0.00000000,
6.6340,0.1098,0.9940,-0.0503,-0.0620,0.1350,-0.2496,0.4582,0.3560,-0.0743,49.27884416,-122.98103131,0.00000000,
6.6350,0.1098,0.9940,-0.0503,-0.0620,0.1350,-0.2496,0.4568,0.4264,-0.1935,49.27884416,-122.98103131,0.00000000,
6.6530,0.1098,0.9940,-0.0503,-0.5435,0.7434,-0.6356,0.4568,0.4264,-0.1935,49.27884416,-122.98103131,0.00000000,
6.6900,0.1098,0.9940,-0.0503,-0.5435,0.7434,-0.6356,0.4353,0.7683,-0.0881,49.27884416,-122.98103131,0.00000000,
6.6900,0.1662,0.9857,-0.0702,-0.5435,0.7434,-0.6356,0.4353,0.7683,-0.0881,49.27884416,-122.98103131,0.00000000,
6.7100,0.1662,0.9857,-0.0702,-0.0778,-0.0738,-0.4203,0.4353,0.7683,-0.0881,49.27884416,-122.98103131,0.00000000,
6.7660,0.1662,0.9857,-0.0702,-0.0778,-0.0738,-0.4203,0.4313,0.4920,0.0331,49.27884416,-122.98103131,0.00000000,
6.7670,0.0315,0.9951,-0.1348,-0.0778,-0.0738,-0.4203,0.4313,0.4920,0.0331,49.27884416,-122.98103131,0.00000000,
6.7850,0.0315,0.9951,-0.1348,0.2859,-0.3006,-0.5055,0.4313,0.4920,0.0331,49.27884416,-122.98103131,0.00000000,
6.8240,0.0315,0.9951,-0.1348,0.2859,-0.3006,-0.5055,0.0824,0.2832,-0.0888,49.27884416,-122.98103131,0.00000000,
6.8250,0.0930,1.1320,0.0037,0.2859,-0.3006,-0.5055,0.0824,0.2832,-0.0888,49.27884416,-122.98103131,0.00000000,
6.8430,0.0930,1.1320,0.0037,-0.9508,0.3298,-0.7418,0.0824,0.2832,-0.0888,49.27884416,-122.98103131,0.00000000,
6.9010,0.1429,1.0614,0.1393,-0.9508,0.3298,-0.7418,0.0824,0.2832,-0.0888,49.27884416,-122.98103131,0.00000000,
6.9020,0.1429,1.0614,0.1393,-0.9508,0.3298,-0.7418,-0.5293,0.5253,-0.2041,49.27884416,-122.98103131,0.00000000,
6.9190,0.1429,1.0614,0.1393,0.3878,1.3285,0.4566,-0.5293,0.5253,-0.2041,49.27884416,-122.98103131,0.00000000,
6.9570,0.1429,1.0614,0.1393,0.3878,1.3285,0.4566,-1.6521,0.7175,-0.1624,49.27884416,-122.98103131,0.00000000,
6.9580,-0.0059,0.9910,0.0326,0.3878,1.3285,0.4566,-1.6521,0.7175,-0.1624,49.27884416,-122.98103131,0.00000000,
6.9760,-0.0059,0.9910,0.0326,0.0749,-0.0288,-0.4118,-1.6521,0.7175,-0.1624,49.27884416,-122.98103131,0.00000000,
7.0330,-0.0059,0.9910,0.0326,0.0749,-0.0288,-0.4118,-3.5243,-0.4369,0.1437,49.27884416,-122.98103131,0.00000000,
7.0340,0.0267,1.5165,-0.0037,0.0749,-0.0288,-0.4118,-3.5243,-0.4369,0.1437,49.27884416,-122.98103131,0.00000000,
7.0530,0.0267,1.5165,-0.0037,-1.5116,2.1607,-4.5172,-3.5243,-0.4369,0.1437,49.27884416,-122.98103131,0.00000000,
7.0910,0.4285,0.8206,0.2865,-1.5116,2.1607,-4.5172,-3.5243,-0.4369,0.1437,49.27884416,-122.98103131,0.00000000,
7.0920,0.4285,0.8206,0.2865,-1.5116,2.1607,-4.5172,-2.0516,0.7550,0.5230,49.27884416,-122.98103131,0.00000000,
7.1090,0.4285,0.8206,0.2865,0.3943,4.6922,-2.7070,-2.0516,0.7550,0.5230,49.27884416,-122.98103131,0.00000000,
7.1570,0.1512,0.7463,0.4474,0.3943,4.6922,-2.7070,-2.0516,0.7550,0.5230,49.27884416,-122.98103131,0.00000000,
7.1600,0.1512,0.7463,0.4474,0.3943,4.6922,-2.7070,-0.8752,0.8404,0.1497,49.27884416,-122.98103131,0.00000000,
7.1770,0.1512,0.7463,0.4474,3.3394,-0.6780,-2.6447,-0.8752,0.8404,0.1497,49.27884416,-122.98103131,0.00000000,
7.2350,0.1512,0.7463,0.4474,3.3394,-0.6780,-2.6447,0.2713,-0.4606,0.1626,49.27884416,-122.98103131,0.00000000,
7.2360,0.0201,0.6312,0.3678,3.3394,-0.6780,-2.6447,0.2713,-0.4606,0.1626,49.27884416,-122.98103131,0.00000000,
7.2540,0.0201,0.6312,0.3678,-1.1872,-1.7365,-0.1168,0.2713,-0.4606,0.1626,49.27884416,-122.98103131,0.00000000,
7.2910,0.2020,0.6275,0.4728,-1.1872,-1.7365,-0.1168,0.2713,-0.4606,0.1626,49.27884416,-122.98103131,0.00000000,
7.2920,0.2020,0.6275,0.4728,-1.1872,-1.7365,-0.1168,0.6102,0.4080,0.2196,49.27884416,-122.98103131,0.00000000,
7.3100,0.2020,0.6275,0.4728,-0.0869,-2.4361,-0.6373,0.6102,0.4080,0.2196,49.27884416,-122.98103131,0.00000000,
7.3680,0.1273,0.8918,0.5594,-0.0869,-2.4361,-0.6373,0.6102,0.4080,0.2196,49.27884416,-122.98103131,0.00000000,
7.3700,0.1273,0.8918,0.5594,-0.0869,-2.4361,-0.6373,0.9718,0.4283,0.2743,49.27884416,-122.98103131,0.00000000,
7.3850,0.1273,0.8918,0.5594,0.3033,-2.6253,1.2252,0.9718,0.4283,0.2743,49.27884416,-122.98103131,0.00000000,
7.4250,0.1197,0.9621,0.5772,0.3033,-2.6253,1.2252,0.9718,0.4283,0.2743,49.27884416,-122.98103131,0.00000000,
7.4260,0.1197,0.9621,0.5772,0.3033,-2.6253,1.2252,0.2809,-0.0707,0.4322,49.27884416,-122.98103131,0.00000000,
7.4460,0.1197,0.9621,0.5772,-0.6836,-0.0579,1.4376,0.2809,-0.0707,0.4322,49.27884416,-122.98103131,0.00000000,
7.5010,0.1197,0.9621,0.5772,-0.6836,-0.0579,1.4376,0.4654,0.2082,0.0537,49.27884416,-122.98103131,0.00000000,
7.5030,0.4010,1.1272,0.2825,-0.6836,-0.0579,1.4376,0.4654,0.2082,0.0537,49.27884416,-122.98103131,0.00000000,
7.5180,0.4010,1.1272,0.2825,0.3656,1.3489,1.4304,0.4654,0.2082,0.0537,49.27884416,-122.98103131,0.00000000,
7.5560,0.4010,1.1272,0.2825,0.3656,1.3489,1.4304,-0.0584,-0.3020,-0.1409,49.27884416,-122.98103131,0.00000000,
7.5580,0.3573,1.0592,0.2640,0.3656,1.3489,1.4304,-0.0584,-0.3020,-0.1409,49.27884416,-122.98103131,0.00000000,
7.5760,0.3573,1.0592,0.2640,2.1124,2.8194,-0.1565,-0.0584,-0.3020,-0.1409,49.27884416,-122.98103131,0.00000000,
7.6340,0.3573,1.0592,0.2640,2.1124,2.8194,-0.1565,0.3758,0.1475,-0.5659,49.27884416,-122.98103131,0.00000000,
7.6350,-0.0599,0.8652,0.2559,2.1124,2.8194,-0.1565,0.3758,0.1475,-0.5659,49.27884416,-122.98103131,0.00000000,
7.6530,-0.0599,0.8652,0.2559,2.2798,-1.3919,-1.4089,0.3758,0.1475,-0.5659,49.27884416,-122.98103131,0.00000000,
7.6900,0.1286,0.9381,0.2102,2.2798,-1.3919,-1.4089,0.3758,0.1475,-0.5659,49.27884416,-122.98103131,0.00000000,
7.6920,0.1286,0.9381,0.2102,2.2798,-1.3919,-1.4089,0.5327,-0.2086,-0.0326,49.27884416,-122.98103131,0.00000000,
7.7090,0.1286,0.9381,0.2102,-1.8656,0.5277,-0.5053,0.5327,-0.2086,-0.0326,49.27884416,-122.98103131,0.00000000,
7.7680,-0.0026,0.8822,0.2886,-1.8656,0.5277,-0.5053,0.5327,-0.2086,-0.0326,49.27884416,-122.98103131,0.00000000,
7.7700,-0.0026,0.8822,0.2886,-1.8656,0.5277,-0.5053,0.2095,-0.2405,-0.2284,49.27884416,-122.98103131,0.00000000,
7.7850,-0.0026,0.8822,0.2886,0.2866,-0.6047,-0.6350,0.2095,-0.2405,-0.2284,49.27884416,-122.98103131,0.00000000,
7.8230,-0.0026,0.8822,0.2886,0.2866,-0.6047,-0.6350,0.1315,-0.3287,0.1624,49.27884416,-122.98103131,0.00000000,
7.8240,0.0540,1.0401,0.1675,0.2866,-0.6047,-0.6350,0.1315,-0.3287,0.1624,49.27884416,-122.98103131,0.00000000,
7.8430,0.0540,1.0401,0.1675,-1.8187,-0.3197,-0.0127,0.1315,-0.3287,0.1624,49.27884416,-122.98103131,0.00000000,
7.8990,0.0540,1.0401,0.1675,-1.8187,-0.3197,-0.0127,-0.1623,-0.0117,-0.0406,49.27884416,-122.98103131,0.00000000,
7.9000,0.3386,1.0588,0.2378,-1.8187,-0.3197,-0.0127,-0.1623,-0.0117,-0.0406,49.27884416,-122.98103131,0.00000000,
7.9180,0.3386,1.0588,0.2378,0.4988,1.0942,-1.3962,-0.1623,-0.0117,-0.0406,49.27884416,-122.98103131,0.00000000,
7.9560,0.2286,0.8894,0.2243,0.4988,1.0942,-1.3962,-0.1623,-0.0117,-0.0406,49.27884416,-122.98103131,0.00000000,
7.9570,0.2286,0.8894,0.2243,0.4988,1.0942,-1.3962,0.0683,0.4552,0.0458,49.27884416,-122.98103131,0.00000000,
7.9770,0.2286,0.8894,0.2243,1.7655,0.0628,-0.0982,0.0683,0.4552,0.0458,49.27884416,-122.98103131,0.00000000,
8.0330,0.2286,0.8894,0.2243,1.7655,0.0628,-0.0982,0.0547,0.3272,-0.1769,49.27884416,-122.98103131,0.00000000,
8.0340,0.0947,1.0415,0.2798,1.7655,0.0628,-0.0982,0.0547,0.3272,-0.1769,49.27884416,-122.98103131,0.00000000,
8.0520,0.0947,1.0415,0.2798,1.3732,0.0286,-0.6773,0.0547,0.3272,-0.1769,49.27884416,-122.98103131,0.00000000,
8.0900,0.0947,1.0415,0.2798,1.3732,0.0286,-0.6773,-0.0308,0.2962,-0.2134,49.27884416,-122.98103131,0.00000000,
8.0910,0.0654,0.9698,0.3044,1.3732,0.0286,-0.6773,-0.0308,0.2962,-0.2134,49.27884416,-122.98103131,0.00000000,
8.1100,0.0654,0.9698,0.3044,-0.6940,0.9277,0.1160,-0.0308,0.2962,-0.2134,49.27884416,-122.98103131,0.00000000,
8.1560,0.1246,0.9628,0.2578,-0.6940,0.9277,0.1160,-0.0308,0.2962,-0.2134,49.27884416,-122.98103131,0.00000000,
8.1570,0.1246,0.9628,0.2578,-0.6940,0.9277,0.1160,0.1995,-0.1194,0.0936,49.27884416,-122.98103131,0.00000000,
8.1760,0.1246,0.9628,0.2578,-0.1941,-1.3796,0.2706,0.1995,-0.1194,0.0936,49.27884416,-122.98103131,0.00000000,
8.2340,0.1246,0.9628,0.2578,-0.1941,-1.3796,0.2706,0.1084,0.4189,-0.2062,49.27884416,-122.98103131,0.00000000,
8.2340,0.1543,0.9939,0.2580,-0.1941,-1.3796,0.2706,0.1084,0.4189,-0.2062,49.27884416,-122.98103131,0.00000000,
8.2510,0.1543,0.9939,0.2580,0.9877,1.1361,-0.2939,0.1084,0.4189,-0.2062,49.27884416,-122.98103131,0.00000000,
8.2880,0.1543,0.9939,0.2580,0.9877,1.1361,-0.2939,-0.0204,1.0758,-0.2560,49.27884416,-122.98103131,0.00000000,
8.2890,0.0235,1.0062,0.4870,0.9877,1.1361,-0.2939,-0.0204,1.0758,-0.2560,49.27884416,-122.98103131,0.00000000,
8.3080,0.0235,1.0062,0.4870,0.5329,-0.1551,0.3863,-0.0204,1.0758,-0.2560,49.27884416,-122.98103131,0.00000000,
8.3660,-0.0122,0.9142,0.4649,0.5329,-0.1551,0.3863,-0.0204,1.0758,-0.2560,49.27884416,-122.98103131,0.00000000,
8.3670,-0.0122,0.9142,0.4649,0.5329,-0.1551,0.3863,0.0543,0.2948,-0.0984,49.27884416,-122.98103131,0.00000000,
8.3850,-0.0122,0.9142,0.4649,-0.0122,0.1814,1.8694,0.0543,0.2948,-0.0984,49.27884416,-122.98103131,0.00000000,
8.4230,-0.0122,0.9142,0.4649,-0.0122,0.1814,1.8694,-0.1431,0.0368,0.1661,49.27884416,-122.98103131,0.00000000,
8.4240,0.0055,0.9462,0.3783,-0.0122,0.1814,1.8694,-0.1431,0.0368,0.1661,49.27884416,-122.98103131,0.00000000,
8.4440,0.0055,0.9462,0.3783,-0.5254,-0.3158,1.5306,-0.1431,0.0368,0.1661,49.27884416,-122.98103131,0.00000000,
8.5000,0.0055,0.9462,0.3783,-0.5254,-0.3158,1.5306,-0.7358,-0.7847,0.4015,49.27884416,-122.98103131,0.00000000,
8.5020,-0.0848,0.9511,0.6013,-0.5254,-0.3158,1.5306,-0.7358,-0.7847,0.4015,49.27884416,-122.98103131,0.00000000,
8.5180,-0.0848,0.9511,0.6013,-0.9092,0.1085,0.3832,-0.7358,-0.7847,0.4015,49.27884416,-122.98103131,0.00000000,
8.5550,0.1833,0.7721,0.3841,-0.9092,0.1085,0.3832,-0.7358,-0.7847,0.4015,49.27884416,-122.98103131,0.00000000,
8.5560,0.1833,0.7721,0.3841,-0.9092,0.1085,0.3832,0.0309,-0.1489,0.0559,49.27884416,-122.98103131,0.00000000,
8.5760,0.1833,0.7721,0.3841,-1.3686,-1.1919,3.0207,0.0309,-0.1489,0.0559,49.27884416,-122.98103131,0.00000000,
8.6360,0.1833,0.7721,0.3841,-1.3686,-1.1919,3.0207,0.1564,0.2113,-0.1003,49.27884416,-122.98103131,0.00000000,
8.6370,0.1529,0.9225,0.4605,-1.3686,-1.1919,3.0207,0.1564,0.2113,-0.1003,49.27884416,-122.98103131,0.00000000,
8.6510,0.1529,0.9225,0.4605,1.3383,-0.3522,1.2522,0.1564,0.2113,-0.1003,49.27884416,-122.98103131,0.00000000,
8.6890,0.1529,0.9225,0.4605,1.3383,-0.3522,1.2522,0.3465,0.5606,-0.2957,49.27884416,-122.98103131,0.00000000,
8.6900,-0.0329,0.9456,0.2727,1.3383,-0.3522,1.2522,0.3465,0.5606,-0.2957,49.27884416,-122.98103131,0.00000000,
8.7080,-0.0329,0.9456,0.2727,0.8051,-1.1723,0.3823,0.3465,0.5606,-0.2957,49.27884416,-122.98103131,0.00000000,
8.7670,-0.0329,0.9456,0.2727,0.8051,-1.1723,0.3823,0.7472,0.0822,-0.1615,49.27884416,-122.98103131,0.00000000,
8.7690,0.0664,1.0188,0.1537,0.8051,-1.1723,0.3823,0.7472,0.0822,-0.1615,49.27884416,-122.98103131,0.00000000,
8.7840,0.0664,1.0188,0.1537,-0.9124,0.3235,-0.1747,0.7472,0.0822,-0.1615,49.27884416,-122.98103131,0.00000000,
8.8230,0.0664,1.0188,0.1537,-0.9124,0.3235,-0.1747,0.9750,0.2246,0.2177,49.27884416,-122.98103131,0.00000000,
8.8240,0.2422,0.9989,0.1496,-0.9124,0.3235,-0.1747,0.9750,0.2246,0.2177,49.27884416,-122.98103131,0.00000000,
8.8430,0.2422,0.9989,0.1496,1.0827,0.1103,-0.3767,0.9750,0.2246,0.2177,49.27884416,-122.98103131,0.00000000,
8.8990,0.2422,0.9989,0.1496,1.0827,0.1103,-0.3767,1.2947,0.5627,0.0004,49.27884416,-122.98103131,0.00000000,
8.9010,-0.0313,1.0285,0.0404,1.0827,0.1103,-0.3767,1.2947,0.5627,0.0004,49.27884416,-122.98103131,0.00000000,
8.9190,-0.0313,1.0285,0.0404,1.5450,0.0431,0.5477,1.2947,0.5627,0.0004,49.27884416,-122.98103131,0.00000000,
8.9550,-0.0313,1.0285,0.0404,1.5450,0.0431,0.5477,1.2679,0.1822,0.0690,49.27884416,-122.98103131,0.00000000,
8.9560,-0.0595,0.9539,0.0290,1.5450,0.0431,0.5477,1.2679,0.1822,0.0690,49.27884416,-122.98103131,0.00000000,
8.9760,-0.0595,0.9539,0.0290,-1.3762,-0.0358,0.0176,1.2679,0.1822,0.0690,49.27884416,-122.98103131,0.00000000,
9.0320,-0.0595,0.9539,0.0290,-1.3762,-0.0358,0.0176,1.1872,0.0221,0.2699,49.27884416,-122.98103131,0.00000000,
9.0330,0.0215,0.9281,0.0116,-1.3762,-0.0358,0.0176,1.1872,0.0221,0.2699,49.27884416,-122.98103131,0.00000000,
9.0500,0.0215,0.9281,0.0116,-0.9132,-0.5895,0.8885,1.1872,0.0221,0.2699,49.27884416,-122.98103131,0.00000000,
9.0880,0.0175,1.0380,0.0695,-0.9132,-0.5895,0.8885,1.1872,0.0221,0.2699,49.27884416,-122.98103131,0.00000000,
9.0900,0.0175,1.0380,0.0695,-0.9132,-0.5895,0.8885,0.9588,0.2316,0.0774,49.27884416,-122.98103131,0.00000000,
9.1100,0.0175,1.0380,0.0695,-0.3670,-0.3083,1.5129,0.9588,0.2316,0.0774,49.27884416,-122.98103131,0.00000000,
9.1550,-0.0119,1.0356,-0.0268,-0.3670,-0.3083,1.5129,0.9588,0.2316,0.0774,49.27884416,-122.98103131,0.00000000,
9.1560,-0.0119,1.0356,-0.0268,-0.3670,-0.3083,1.5129,0.4575,0.3503,0.0570,49.27884416,-122.98103131,0.00000000,
9.1750,-0.0119,1.0356,-0.0268,-0.6677,0.5229,2.0339,0.4575,0.3503,0.0570,49.27884416,-122.98103131,0.00000000,
9.2330,-0.0075,0.9814,-0.1279,-0.6677,0.5229,2.0339,0.4575,0.3503,0.0570,49.27884416,-122.98103131,0.00000000,
9.2350,-0.0075,0.9814,-0.1279,-0.6677,0.5229,2.0339,0.3708,0.2232,0.0910,49.27884416,-122.98103131,0.00000000,
9.2500,-0.0075,0.9814,-0.1279,-0.9327,0.1698,0.9056,0.3708,0.2232,0.0910,49.27884416,-122.98103131,0.00000000,
9.2890,-0.0075,0.9814,-0.1279,-0.9327,0.1698,0.9056,0.5132,0.1457,0.1313,49.27884416,-122.98103131,0.00000000,
9.2920,0.0449,1.0355,-0.1809,-0.9327,0.1698,0.9056,0.5132,0.1457,0.1313,49.27884416,-122.98103131,0.00000000,
9.3090,0.0449,1.0355,-0.1809,-0.8984,0.1259,0.4266,0.5132,0.1457,0.1313,49.27884416,-122.98103131,0.00000000,
9.3660,0.0449,1.0355,-0.1809,-0.8984,0.1259,0.4266,0.4886,0.3178,0.3186,49.27884416,-122.98103131,0.00000000,
9.3670,0.0644,1.0622,-0.0375,-0.8984,0.1259,0.4266,0.4886,0.3178,0.3186,49.27884416,-122.98103131,0.00000000,
9.3850,0.0644,1.0622,-0.0375,-0.3391,0.8416,0.5553,0.4886,0.3178,0.3186,49.27884416,-122.98103131,0.00000000,
9.4230,0.0432,1.2337,0.0429,-0.3391,0.8416,0.5553,0.4886,0.3178,0.3186,49.27884416,-122.98103131,0.00000000,
9.4240,0.0432,1.2337,0.0429,-0.3391,0.8416,0.5553,0.3540,0.6407,0.3298,49.27884416,-122.98103131,0.00000000,
9.4410,0.0432,1.2337,0.0429,-1.1781,0.8421,2.3620,0.3540,0.6407,0.3298,49.27884416,-122.98103131,0.00000000,
9.4990,0.0479,1.4402,-0.1446,-1.1781,0.8421,2.3620,0.3540,0.6407,0.3298,49.27884416,-122.98103131,0.00000000,
9.5020,0.0479,1.4402,-0.1446,-1.1781,0.8421,2.3620,-1.0417,0.2309,-0.0572,49.27884416,-122.98103131,0.00000000,
9.5170,0.0479,1.4402,-0.1446,-0.8332,3.6127,1.0220,-1.0417,0.2309,-0.0572,49.27884416,-122.98103131,0.00000000,
9.5550,0.0479,1.4402,-0.1446,-0.8332,3.6127,1.0220,-2.6523,-0.1145,-0.1936,49.27884416,-122.98103131,0.00000000,
9.5560,0.0856,1.2992,-0.0137,-0.8332,3.6127,1.0220,-2.6523,-0.1145,-0.1936,49.27884416,-122.98103131,0.00000000,
9.5750,0.0856,1.2992,-0.0137,-0.5718,3.0199,-1.7346,-2.6523,-0.1145,-0.1936,49.27884416,-122.98103131,0.00000000,
9.6310,0.0856,1.2992,-0.0137,-0.5718,3.0199,-1.7346,-1.8842,-0.3280,-0.5445,49.27884416,-122.98103131,0.00000000,
9.6330,-0.0510,1.1795,-0.1855,-0.5718,3.0199,-1.7346,-1.8842,-0.3280,-0.5445,49.27884416,-122.98103131,0.00000000,
9.6500,-0.0510,1.1795,-0.1855,-0.1093,3.1430,-1.9059,-1.8842,-0.3280,-0.5445,49.27884416,-122.98103131,0.00000000,
9.6880,0.1812,1.0556,-0.0847,-0.1093,3.1430,-1.9059,-1.8842,-0.3280,-0.5445,49.27884416,-122.98103131,0.00000000,
9.6900,0.1812,1.0556,-0.0847,-0.1093,3.1430,-1.9059,-2.3574,-2.0813,-0.4378,49.27884416,-122.98103131,0.00000000,
9.7090,0.1812,1.0556,-0.0847,-1.2420,1.7420,-5.3739,-2.3574,-2.0813,-0.4378,49.27884416,-122.98103131,0.00000000,
9.7650,0.1812,1.0556,-0.0847,-1.2420,1.7420,-5.3739,-1.9846,-1.6705,-0.1282,49.27884416,-122.98103131,0.00000000,
9.7680,0.2175,0.6803,0.1668,-1.2420,1.7420,-5.3739,-1.9846,-1.6705,-0.1282,49.27884416,-122.98103131,0.00000000,
9.7850,0.2175,0.6803,0.1668,0.7882,0.1551,-3.8312,-1.9846,-1.6705,-0.1282,49.27884416,-122.98103131,0.00000000,
9.8220,0.4312,0.5876,0.1287,0.7882,0.1551,-3.8312,-1.9846,-1.6705,-0.1282,49.27884416,-122.98103131,0.00000000,
9.8230,0.4312,0.5876,0.1287,0.7882,0.1551,-3.8312,-1.0559,0.3223,-0.1512,49.27884416,-122.98103131,0.00000000,
9.8410,0.4312,0.5876,0.1287,2.0138,-2.6632,-2.6802,-1.0559,0.3223,-0.1512,49.27884416,-122.98103131,0.00000000,
9.8990,0.4312,0.5876,0.1287,2.0138,-2.6632,-2.6802,-0.5049,0.4916,-0.6071,49.27884416,-122.98103131,0.00000000,
9.9000,0.0519,0.5489,0.2825,2.0138,-2.6632,-2.6802,-0.5049,0.4916,-0.6071,49.27884416,-122.98103131,0.00000000,
9.9170,0.0519,0.5489,0.2825,3.2992,-3.1760,-3.3423,-0.5049,0.4916,-0.6071,49.27884416,-122.98103131,0.00000000,
9.9550,-0.2804,0.8591,0.8298,3.2992,-3.1760,-3.3423,-0.5049,0.4916,-0.6071,49.27884416,-122.98103131,0.00000000,
9.9560,-0.2804,0.8591,0.8298,3.2992,-3.1760,-3.3423,-0.1420,-0.8638,-0.3223,49.27884416,-122.98103131,0.00000000,
9.9750,-0.2804,0.8591,0.8298,-1.6559,-2.9371,-0.7217,-0.1420,-0.8638,-0.3223,49.27884416,-122.98103131,0.00000000,
10.0310,0.1565,0.9405,0.8644,-1.6559,-2.9371,-0.7217,-0.1420,-0.8638,-0.3223,49.27884416,-122.98103131,0.00000000,
10.0320,0.1565,0.9405,0.8644,-1.6559,-2.9371,-0.7217,0.1186,-0.5248,-0.5080,49.27883789,-122.98104281,0.00000000,
10.0490,0.1565,0.9405,0.8644,-2.4148,0.9864,5.0434,0.1186,-0.5248,-0.5080,49.27883789,-122.98104281,0.00000000,
10.0880,0.2934,1.0004,0.4010,-2.4148,0.9864,5.0434,0.1186,-0.5248,-0.5080,49.27883789,-122.98104281,0.00000000,
10.0900,0.2934,1.0004,0.4010,-2.4148,0.9864,5.0434,-0.0694,-0.5508,0.1326,49.27883789,-122.98104281,0.00000000,
10.1070,0.2934,1.0004,0.4010,1.4482,0.9593,1.9995,-0.0694,-0.5508,0.1326,49.27883789,-122.98104281,0.00000000,
10.1550,0.2934,1.0004,0.4010,1.4482,0.9593,1.9995,1.2218,1.8300,0.0954,49.27883789,-122.98104281,0.00000000,
10.1570,0.4900,0.8746,0.2800,1.4482,0.9593,1.9995,1.2218,1.8300,0.0954,49.27883789,-122.98104281,0.00000000,
10.1740,0.4900,0.8746,0.2800,5.2391,-2.9537,0.0065,1.2218,1.8300,0.0954,49.27883789,-122.98104281,0.00000000,
10.2310,0.4900,0.8746,0.2800,5.2391,-2.9537,0.0065,1.4394,0.7473,0.0990,49.27883789,-122.98104281,0.00000000,
10.2320,-0.2284,1.0404,-0.1529,5.2391,-2.9537,0.0065,1.4394,0.7473,0.0990,49.27883789,-122.98104281,0.00000000,
10.2510,-0.2284,1.0404,-0.1529,0.3802,2.4917,-2.8559,1.4394,0.7473,0.0990,49.27883789,-122.98104281,0.00000000,
10.2880,-0.2284,1.0404,-0.1529,0.3802,2.4917,-2.8559,1.9597,0.5703,0.2282,49.27883789,-122.98104281,0.00000000,
10.2900,0.2205,0.9697,0.1308,0.3802,2.4917,-2.8559,1.9597,0.5703,0.2282,49.27883789,-122.98104281,0.00000000,
10.3070,0.2205,0.9697,0.1308,-0.6121,-0.4704,-0.6842,1.9597,0.5703,0.2282,49.27883789,-122.98104281,0.00000000,
10.3640,0.2205,0.9697,0.1308,-0.6121,-0.4704,-0.6842,1.9080,0.4803,-0.0123,49.27883789,-122.98104281,0.00000000,
10.3650,-0.1585,0.8770,-0.1076,-0.6121,-0.4704,-0.6842,1.9080,0.4803,-0.0123,49.27883789,-122.98104281,0.00000000,
10.3830,-0.1585,0.8770,-0.1076,0.9516,-0.0806,-0.0505,1.9080,0.4803,-0.0123,49.27883789,-122.98104281,0.00000000,
10.4210,-0.1585,0.8770,-0.1076,0.9516,-0.0806,-0.0505,1.5324,-0.0957,0.3519,49.27883789,-122.98104281,0.00000000,
10.4220,-0.0016,0.9715,0.0347,0.9516,-0.0806,-0.0505,1.5324,-0.0957,0.3519,49.27883789,-122.98104281,0.00000000,
10.4410,-0.0016,0.9715,0.0347,-2.1208,-1.4806,-0.2181,1.5324,-0.0957,0.3519,49.27883789,-122.98104281,0.00000000,
10.4970,0.0470,0.9637,0.0461,-2.1208,-1.4806,-0.2181,1.5324,-0.0957,0.3519,49.27883789,-122.98104281,0.00000000,
10.4990,0.0470,0.9637,0.0461,-2.1208,-1.4806,-0.2181,1.3541,0.1338,0.0968,49.27883789,-122.98104281,0.00000000,
10.5160,0.0470,0.9637,0.0461,-0.2280,-0.0739,1.9045,1.3541,0.1338,0.0968,49.27883789,-122.98104281,0.00000000,
10.5550,0.0470,0.9637,0.0461,-0.2280,-0.0739,1.9045,0.9961,0.8592,0.2397,49.27883789,-122.98104281,0.00000000,
10.5560,0.0492,0.9535,0.0049,-0.2280,-0.0739,1.9045,0.9961,0.8592,0.2397,49.27883789,-122.98104281,0.00000000,
10.5740,0.0492,0.9535,0.0049,-0.0021,-0.2806,2.6204,0.9961,0.8592,0.2397,49.27883789,-122.98104281,0.00000000,
10.6300,-0.1936,1.0835,-0.1488,-0.0021,-0.2806,2.6204,0.9961,0.8592,0.2397,49.27883789,-122.98104281,0.00000000,
10.6310,-0.1936,1.0835,-0.1488,-0.0021,-0.2806,2.6204,0.6741,0.6407,0.2968,49.27883789,-122.98104281,0.00000000,
10.6500,-0.1936,1.0835,-0.1488,-1.5548,-0.0467,1.6931,0.6741,0.6407,0.2968,49.27883789,-122.98104281,0.00000000,
10.6880,-0.0950,1.4210,0.0508,-1.5548,-0.0467,1.6931,0.6741,0.6407,0.2968,49.27883789,-122.98104281,0.00000000,
10.6890,-0.0950,1.4210,0.0508,-1.5548,-0.0467,1.6931,0.2816,0.3799,0.0411,49.27883789,-122.98104281,0.00000000,
10.7060,-0.0950,1.4210,0.0508,-2.2958,2.1237,1.3146,0.2816,0.3799,0.0411,49.27883789,-122.98104281,0.00000000,
10.7650,-0.0578,1.5659,-0.1441,-2.2958,2.1237,1.3146,0.2816,0.3799,0.0411,49.27883789,-122.98104281,0.00000000,
10.7660,-0.0578,1.5659,-0.1441,-2.2958,2.1237,1.3146,-1.4322,0.2171,-0.0961,49.27883789,-122.98104281,0.00000000,
10.7830,-0.0578,1.5659,-0.1441,-2.0189,5.3329,1.1240,-1.4322,0.2171,-0.0961,49.27883789,-122.98104281,0.00000000,
10.8200,0.1982,1.3950,-0.1464,-2.0189,5.3329,1.1240,-1.4322,0.2171,-0.0961,49.27883789,-122.98104281,0.00000000,
10.8210,0.1982,1.3950,-0.1464,-2.0189,5.3329,1.1240,-3.0295,-0.5193,-0.1889,49.27883789,-122.98104281,0.00000000,
10.8390,0.1982,1.3950,-0.1464,-1.1058,3.9016,-3.0319,-3.0295,-0.5193,-0.1889,49.27883789,-122.98104281,0.00000000,
10.8980,0.1982,1.3950,-0.1464,-1.1058,3.9016,-3.0319,-2.2394,-0.1880,-0.5048,49.27883789,-122.98104281,0.00000000,
10.9000,0.2236,1.1748,-0.1695,-1.1058,3.9016,-3.0319,-2.2394,-0.1880,-0.5048,49.27883789,-122.98104281,0.00000000,
10.9160,0.2236,1.1748,-0.1695,2.6175,4.1167,-3.2248,-2.2394,-0.1880,-0.5048,49.27883789,-122.98104281,0.00000000,
10.9550,0.2236,1.1748,-0.1695,2.6175,4.1167,-3.2248,-2.4825,-1.5445,-0.4134,49.27883789,-122.98104281,0.00000000,
10.9560,-0.0062,0.9060,-0.1134,2.6175,4.1167,-3.2248,-2.4825,-1.5445,-0.4134,49.27883789,-122.98104281,0.00000000,
10.9740,-0.0062,0.9060,-0.1134,0.5110,1.3040,-6.1526,-2.4825,-1.5445,-0.4134,49.27883789,-122.98104281,0.00000000,
11.0290,0.2424,0.5421,0.1681,0.5110,1.3040,-6.1526,-2.4825,-1.5445,-0.4134,49.27883789,-122.98104281,0.00000000,
11.0300,0.2424,0.5421,0.1681,0.5110,1.3040,-6.1526,-1.5779,-1.4155,-0.0832,49.27883789,-122.98104281,0.00000000,
11.0480,0.2424,0.5421,0.1681,-0.8418,-0.9065,-4.4008,-1.5779,-1.4155,-0.0832,49.27883789,-122.98104281,0.00000000,
11.0870,0.2424,0.5421,0.1681,-0.8418,-0.9065,-4.4008,-0.3328,0.3099,-0.3846,49.27883789,-122.98104281,0.00000000,
11.0880,0.3286,0.4802,0.1577,-0.8418,-0.9065,-4.4008,-0.3328,0.3099,-0.3846,49.27883789,-122.98104281,0.00000000,
11.1060,0.3286,0.4802,0.1577,2.9372,-4.3567,-2.3612,-0.3328,0.3099,-0.3846,49.27883789,-122.98104281,0.00000000,
11.1530,-0.0723,0.7061,0.3308,2.9372,-4.3567,-2.3612,-0.3328,0.3099,-0.3846,49.27883789,-122.98104281,0.00000000,
11.1540,-0.0723,0.7061,0.3308,2.9372,-4.3567,-2.3612,-0.0843,-0.1543,-0.4066,49.27883789,-122.98104281,0.00000000,
11.1730,-0.0723,0.7061,0.3308,1.6785,-3.5857,-3.2892,-0.0843,-0.1543,-0.4066,49.27883789,-122.98104281,0.00000000,
11.2300,-0.0658,0.9458,0.7209,1.6785,-3.5857,-3.2892,-0.0843,-0.1543,-0.4066,49.27883789,-122.98104281,0.00000000,
11.2310,-0.0658,0.9458,0.7209,1.6785,-3.5857,-3.2892,-0.1199,-0.6245,-0.2090,49.27883789,-122.98104281,0.00000000,
11.2480,-0.0658,0.9458,0.7209,-1.6841,-1.0564,0.2013,-0.1199,-0.6245,-0.2090,49.27883789,-122.98104281,0.00000000,
11.2860,0.2348,1.0079,0.8171,-1.6841,-1.0564,0.2013,-0.1199,-0.6245,-0.2090,49.27883789,-122.98104281,0.00000000,
11.2860,0.2348,1.0079,0.8171,-1.6841,-1.0564,0.2013,-0.1003,-0.1318,-0.3774,49.27883789,-122.98104281,0.00000000,
11.3060,0.2348,1.0079,0.8171,-0.1901,1.2200,3.2798,-0.1003,-0.1318,-0.3774,49.27883789,-122.98104281,0.00000000,
11.3640,0.0523,0.9000,0.5093,-0.1901,1.2200,3.2798,-0.1003,-0.1318,-0.3774,49.27883789,-122.98104281,0.00000000,
11.3660,0.0523,0.9000,0.5093,-0.1901,1.2200,3.2798,0.3107,-0.1124,-0.4294,49.27883789,-122.98104281,0.00000000,
11.3840,0.0523,0.9000,0.5093,2.5854,-0.2594,2.7108,0.3107,-0.1124,-0.4294,49.27883789,-122.98104281,0.00000000,
11.4200,0.0523,0.9000,0.5093,2.5854,-0.2594,2.7108,0.2772,-0.1035,0.6989,49.27883789,-122.98104281,0.00000000,
11.4220,0.3908,0.8132,0.2521,2.5854,-0.2594,2.7108,0.2772,-0.1035,0.6989,49.27883789,-122.98104281,0.00000000,
11.4390,0.3908,0.8132,0.2521,-1.6550,2.4275,0.8036,0.2772,-0.1035,0.6989,49.27883789,-122.98104281,0.00000000,
11.4980,0.3908,0.8132,0.2521,-1.6550,2.4275,0.8036,1.6307,1.7109,-0.6443,49.27883789,-122.98104281,0.00000000,
11.5000,0.0145,1.1593,0.1276,-1.6550,2.4275,0.8036,1.6307,1.7109,-0.6443,49.27883789,-122.98104281,0.00000000,
11.5170,0.0145,1.1593,0.1276,7.8523,-3.5526,0.5943,1.6307,1.7109,-0.6443,49.27883789,-122.98104281,0.00000000,
11.5550,0.0804,0.8984,0.0709,7.8523,-3.5526,0.5943,1.6307,1.7109,-0.6443,49.27883789,-122.98104281,0.00000000,
11.5560,0.0804,0.8984,0.0709,7.8523,-3.5526,0.5943,1.0685,0.3717,0.4186,49.27883789,-122.98104281,0.00000000,
11.5740,0.0804,0.8984,0.0709,-3.8125,2.0633,-4.8454,1.0685,0.3717,0.4186,49.27883789,-122.98104281,0.00000000,
11.6310,0.0804,0.8984,0.0709,-3.8125,2.0633,-4.8454,1.9098,1.0510,-0.1024,49.27883789,-122.98104281,0.00000000,
11.6320,0.0784,0.9847,0.0505,-3.8125,2.0633,-4.8454,1.9098,1.0510,-0.1024,49.27883789,-122.98104281,0.00000000,
11.6500,0.0784,0.9847,0.0505,3.4130,-1.0419,1.6070,1.9098,1.0510,-0.1024,49.27883789,-122.98104281,0.00000000,
11.6880,0.0784,0.9847,0.0505,3.4130,-1.0419,1.6070,1.4947,0.4517,0.0921,49.27883789,-122.98104281,0.00000000,
11.6890,-0.3212,0.8864,-0.0549,3.4130,-1.0419,1.6070,1.4947,0.4517,0.0921,49.27883789,-122.98104281,0.00000000,
11.7050,-0.3212,0.8864,-0.0549,-1.1637,-0.1523,-0.7936,1.4947,0.4517,0.0921,49.27883789,-122.98104281,0.00000000,
11.7640,-0.3212,0.8864,-0.0549,-1.1637,-0.1523,-0.7936,1.3054,-0.4233,0.1399,49.27883789,-122.98104281,0.00000000,
11.7650,-0.0197,1.0142,0.0406,-1.1637,-0.1523,-0.7936,1.3054,-0.4233,0.1399,49.27883789,-122.98104281,0.00000000,
11.7830,-0.0197,1.0142,0.0406,-2.4226,-0.9479,0.6574,1.3054,-0.4233,0.1399,49.27883789,-122.98104281,0.00000000,
11.8200,-0.0197,1.0142,0.0406,-2.4226,-0.9479,0.6574,0.9172,0.3979,0.0216,49.27883789,-122.98104281,0.00000000,
11.8210,0.1442,0.9572,0.1374,-2.4226,-0.9479,0.6574,0.9172,0.3979,0.0216,49.27883789,-122.98104281,0.00000000,
11.8390,0.1442,0.9572,0.1374,0.6925,0.0979,1.9486,0.9172,0.3979,0.0216,49.27883789,-122.98104281,0.00000000,
11.8960,0.1442,0.9572,0.1374,0.6925,0.0979,1.9486,0.7099,1.1353,0.0767,49.27883789,-122.98104281,0.00000000,
11.8970,-0.1228,0.9451,-0.0802,0.6925,0.0979,1.9486,0.7099,1.1353,0.0767,49.27883789,-122.98104281,0.00000000,
11.9150,-0.1228,0.9451,-0.0802,0.7504,-0.4109,2.3362,0.7099,1.1353,0.0767,49.27883789,-122.98104281,0.00000000,
11.9540,-0.1228,0.9451,-0.0802,0.7504,-0.4109,2.3362,0.7764,0.5630,0.1432,49.27883789,-122.98104281,0.00000000,
11.9550,-0.1007,0.9626,-0.1645,0.7504,-0.4109,2.3362,0.7764,0.5630,0.1432,49.27883789,-122.98104281,0.00000000,
11.9730,-0.1007,0.9626,-0.1645,-1.7694,-0.3136,1.0309,0.7764,0.5630,0.1432,49.27883789,-122.98104281,0.00000000,
12.0280,-0.0441,1.1971,0.0148,-1.7694,-0.3136,1.0309,0.7764,0.5630,0.1432,49.27883789,-122.98104281,0.00000000,
12.0280,-0.0441,1.1971,0.0148,-1.7694,-0.3136,1.0309,0.8710,0.6639,0.1444,49.27883789,-122.98104281,0.00000000,
12.0470,-0.0441,1.1971,0.0148,-1.2181,0.5197,1.3979,0.8710,0.6639,0.1444,49.27883789,-122.98104281,0.00000000,
12.0850,-0.0441,1.1971,0.0148,-1.2181,0.5197,1.3979,-0.0406,0.8421,0.2017,49.27883789,-122.98104281,0.00000000,
12.0850,-0.0655,1.5978,-0.1302,-1.2181,0.5197,1.3979,-0.0406,0.8421,0.2017,49.27883789,-122.98104281,0.00000000,
12.1050,-0.0655,1.5978,-0.1302,-0.9723,2.9177,2.2208,-0.0406,0.8421,0.2017,49.27883789,-122.98104281,0.00000000,
12.1530,-0.0655,1.5978,-0.1302,-0.9723,2.9177,2.2208,-1.9031,-0.1606,-0.2301,49.27883789,-122.98104281,0.00000000,
12.1540,-0.0709,1.3353,-0.0995,-0.9723,2.9177,2.2208,-1.9031,-0.1606,-0.2301,49.27883789,-122.98104281,0.00000000,
12.1730,-0.0709,1.3353,-0.0995,-1.3146,5.8147,-1.1631,-1.9031,-0.1606,-0.2301,49.27883789,-122.98104281,0.00000000,
12.2290,-0.0709,1.3353,-0.0995,-1.3146,5.8147,-1.1631,-2.8813,-0.4704,-0.0149,49.27883789,-122.98104281,0.00000000,
12.2300,0.2354,1.3189,-0.2692,-1.3146,5.8147,-1.1631,-2.8813,-0.4704,-0.0149,49.27883789,-122.98104281,0.00000000,
12.2500,0.2354,1.3189,-0.2692,-0.3995,3.0767,-2.2143,-2.8813,-0.4704,-0.0149,49.27883789,-122.98104281,0.00000000,
12.2870,0.1482,1.0933,-0.0103,-0.3995,3.0767,-2.2143,-2.8813,-0.4704,-0.0149,49.27883789,-122.98104281,0.00000000,
12.2880,0.1482,1.0933,-0.0103,-0.3995,3.0767,-2.2143,-2.4548,-0.4278,-0.0055,49.27883789,-122.98104281,0.00000000,
12.3060,0.1482,1.0933,-0.0103,1.9330,2.4561,-4.5544,-2.4548,-0.4278,-0.0055,49.27883789,-122.98104281,0.00000000,
12.3640,0.1482,1.0933,-0.0103,1.9330,2.4561,-4.5544,-2.1959,-0.5158,0.0629,49.27883789,-122.98104281,0.00000000,
12.3660,0.0271,0.8006,-0.0100,1.9330,2.4561,-4.5544,-2.1959,-0.5158,0.0629,49.27883789,-122.98104281,0.00000000,
12.3840,0.0271,0.8006,-0.0100,0.5133,1.1147,-3.8093,-2.1959,-0.5158,0.0629,49.27883789,-122.98104281,0.00000000,
12.4200,0.2899,0.5214,0.1616,0.5133,1.1147,-3.8093,-2.1959,-0.5158,0.0629,49.27883789,-122.98104281,0.00000000,
12.4210,0.2899,0.5214,0.1616,0.5133,1.1147,-3.8093,-1.4618,-0.3969,0.1355,49.27883789,-122.98104281,0.00000000,
12.4390,0.2899,0.5214,0.1616,-0.1382,-2.1652,-4.1608,-1.4618,-0.3969,0.1355,49.27883789,-122.98104281,0.00000000,
12.4960,0.2899,0.5214,0.1616,-0.1382,-2.1652,-4.1608,-0.5667,0.5063,-0.4057,49.27883789,-122.98104281,0.00000000,
12.4970,0.0619,0.5143,0.2984,-0.1382,-2.1652,-4.1608,-0.5667,0.5063,-0.4057,49.27883789,-122.98104281,0.00000000,
12.5150,0.0619,0.5143,0.2984,2.4629,-3.9301,-2.8008,-0.5667,0.5063,-0.4057,49.27883789,-122.98104281,0.00000000,
12.5530,0.0619,0.5143,0.2984,2.4629,-3.9301,-2.8008,-0.2799,-0.5381,-0.2263,49.27883789,-122.98104281,0.00000000,
12.5540,-0.2392,0.7238,0.6031,2.4629,-3.9301,-2.8008,-0.2799,-0.5381,-0.2263,49.27883789,-122.98104281,0.00000000,
12.5720,-0.2392,0.7238,0.6031,-1.2233,-3.0212,-1.0304,-0.2799,-0.5381,-0.2263,49.27883789,-122.98104281,0.00000000,
12.6290,-0.2392,0.7238,0.6031,-1.2233,-3.0212,-1.0304,-0.2431,-1.1094,-0.1357,49.27883789,-122.98104281,0.00000000,
12.6310,0.0789,0.9314,0.9858,-1.2233,-3.0212,-1.0304,-0.2431,-1.1094,-0.1357,49.27883789,-122.98104281,0.00000000,
12.6490,0.0789,0.9314,0.9858,-2.8538,-0.7248,2.4039,-0.2431,-1.1094,-0.1357,49.27883789,-122.98104281,0.00000000,
12.6860,0.0789,0.9314,0.9858,-2.8538,-0.7248,2.4039,-0.0542,0.0639,-0.3443,49.27883789,-122.98104281,0.00000000,
12.6870,0.5412,0.9485,0.5926,-2.8538,-0.7248,2.4039,-0.0542,0.0639,-0.3443,49.27883789,-122.98104281,0.00000000,
12.7050,0.5412,0.9485,0.5926,1.9578,0.0486,3.6723,-0.0542,0.0639,-0.3443,49.27883789,-122.98104281,0.00000000,
12.7640,0.5412,0.9485,0.5926,1.9578,0.0486,3.6723,0.4489,0.3880,0.2024,49.27883789,-122.98104281,0.00000000,
12.7650,0.3679,0.6824,0.3618,1.9578,0.0486,3.6723,0.4489,0.3880,0.2024,49.27883789,-122.98104281,0.00000000,
12.7820,0.3679,0.6824,0.3618,3.2870,3.2485,1.8252,0.4489,0.3880,0.2024,49.27883789,-122.98104281,0.00000000,
12.8190,0.3679,0.6824,0.3618,3.2870,3.2485,1.8252,1.8473,1.3767,-0.3399,49.27883789,-122.98104281,0.00000000,
12.8200,-0.1823,1.2970,-0.1188,3.2870,3.2485,1.8252,1.8473,1.3767,-0.3399,49.27883789,-122.98104281,0.00000000,
12.8390,-0.1823,1.2970,-0.1188,4.6971,-4.0154,-0.3835,1.8473,1.3767,-0.3399,49.27883789,-122.98104281,0.00000000,
12.8960,-0.1823,1.2970,-0.1188,4.6971,-4.0154,-0.3835,1.4433,0.0454,0.3406,49.27883789,-122.98104281,0.00000000,
12.8980,0.0484,0.8996,0.1614,4.6971,-4.0154,-0.3835,1.4433,0.0454,0.3406,49.27883789,-122.98104281,0.00000000,
12.9140,0.0484,0.8996,0.1614,-4.0158,2.8073,-5.6903,1.4433,0.0454,0.3406,49.27883789,-122.98104281,0.00000000,
12.9530,0.0484,0.8996,0.1614,-4.0158,2.8073,-5.6903,2.1395,0.9868,0.0798,49.27883789,-122.98104281,0.00000000,
12.9540,0.1529,1.0204,0.0483,-4.0158,2.8073,-5.6903,2.1395,0.9868,0.0798,49.27883789,-122.98104281,0.00000000,
12.9720,0.1529,1.0204,0.0483,2.3955,-1.1698,1.6740,2.1395,0.9868,0.0798,49.27883789,-122.98104281,0.00000000,
13.0280,0.1529,1.0204,0.0483,2.3955,-1.1698,1.6740,1.7075,0.4299,0.1476,49.27883789,-122.98104281,0.00000000,
13.0300,-0.3534,0.8427,-0.0559,2.3955,-1.1698,1.6740,1.7075,0.4299,0.1476,49.27883789,-122.98104281,0.00000000,
13.0470,-0.3534,0.8427,-0.0559,-0.8576,-0.1044,-0.4293,1.7075,0.4299,0.1476,49.27883789,-122.98104281,0.00000000,
13.0850,-0.0661,1.0038,0.0529,-0.8576,-0.1044,-0.4293,1.7075,0.4299,0.1476,49.27883789,-122.98104281,0.00000000,
13.0860,-0.0661,1.0038,0.0529,-0.8576,-0.1044,-0.4293,1.4342,-0.2304,0.2420,49.27883789,-122.98104281,0.00000000,
13.1050,-0.0661,1.0038,0.0529,-3.2005,-1.3351,0.6964,1.4342,-0.2304,0.2420,49.27883789,-122.98104281,0.00000000,
13.1530,-0.0661,1.0038,0.0529,-3.2005,-1.3351,0.6964,1.1146,0.2220,0.1223,49.27883789,-122.98104281,0.00000000,
13.1540,0.1568,0.9655,0.0411,-3.2005,-1.3351,0.6964,1.1146,0.2220,0.1223,49.27883789,-122.98104281,0.00000000,
13.1710,0.1568,0.9655,0.0411,-0.4724,0.1656,2.4568,1.1146,0.2220,0.1223,49.27883789,-122.98104281,0.00000000,
13.2290,0.1568,0.9655,0.0411,-0.4724,0.1656,2.4568,0.7535,0.8128,0.2502,49.27883789,-122.98104281,0.00000000,
13.2300,0.0112,0.9490,-0.0780,-0.4724,0.1656,2.4568,0.7535,0.8128,0.2502,49.27883789,-122.98104281,0.00000000,
13.2480,0.0112,0.9490,-0.0780,1.0264,-0.3115,1.8017,0.7535,0.8128,0.2502,49.27883789,-122.98104281,0.00000000,
13.2850,0.0112,0.9490,-0.0780,1.0264,-0.3115,1.8017,0.7144,0.8220,0.2142,49.27883789,-122.98104281,0.00000000,
13.2860,-0.0421,1.0196,-0.1867,1.0264,-0.3115,1.8017,0.7144,0.8220,0.2142,49.27883789,-122.98104281,0.00000000,
13.3050,-0.0421,1.0196,-0.1867,-1.6743,0.1414,1.3197,0.7144,0.8220,0.2142,49.27883789,-122.98104281,0.00000000,
13.3640,-0.0421,1.0196,-0.1867,-1.6743,0.1414,1.3197,0.7387,0.2679,0.1628,49.27883789,-122.98104281,0.00000000,
13.3660,-0.0704,1.2537,0.0223,-1.6743,0.1414,1.3197,0.7387,0.2679,0.1628,49.27883789,-122.98104281,0.00000000,
13.3810,-0.0704,1.2537,0.0223,-0.9949,1.1616,1.1934,0.7387,0.2679,0.1628,49.27883789,-122.98104281,0.00000000,
13.4180,-0.0267,1.6492,-0.2104,-0.9949,1.1616,1.1934,0.7387,0.2679,0.1628,49.27883789,-122.98104281,0.00000000,
13.4200,-0.0267,1.6492,-0.2104,-0.9949,1.1616,1.1934,-0.2288,0.3164,-0.0006,49.27883789,-122.98104281,0.00000000,
13.4380,-0.0267,1.6492,-0.2104,-1.9161,3.5705,2.2693,-0.2288,0.3164,-0.0006,49.27883789,-122.98104281,0.00000000,
13.4950,-0.0267,1.6492,-0.2104,-1.9161,3.5705,2.2693,-2.2326,-0.3515,-0.0561,49.27883789,-122.98104281,0.00000000,
13.4960,-0.0786,1.2356,-0.1912,-1.9161,3.5705,2.2693,-2.2326,-0.3515,-0.0561,49.27883789,-122.98104281,0.00000000,
13.5140,-0.0786,1.2356,-0.1912,-1.5566,5.4074,-1.8296,-2.2326,-0.3515,-0.0561,49.27883789,-122.98104281,0.00000000,
13.5520,-0.0786,1.2356,-0.1912,-1.5566,5.4074,-1.8296,-2.5029,-0.4692,-0.1118,49.27883789,-122.98104281,0.00000000,
13.5540,0.2275,1.2990,-0.0966,-1.5566,5.4074,-1.8296,-2.5029,-0.4692,-0.1118,49.27883789,-122.98104281,0.00000000,
13.5720,0.2275,1.2990,-0.0966,-0.3985,3.0266,-2.7550,-2.5029,-0.4692,-0.1118,49.27883789,-122.98104281,0.00000000,
13.6290,0.2275,1.2990,-0.0966,-0.3985,3.0266,-2.7550,-2.2991,-1.0795,-0.5760,49.27883789,-122.98104281,0.00000000,
13.6300,-0.0692,0.9940,-0.2483,-0.3985,3.0266,-2.7550,-2.2991,-1.0795,-0.5760,49.27883789,-122.98104281,0.00000000,
13.6490,-0.0692,0.9940,-0.2483,1.0189,1.5095,-3.7409,-2.2991,-1.0795,-0.5760,49.27883789,-122.98104281,0.00000000,
13.6850,-0.0692,0.9940,-0.2483,1.0189,1.5095,-3.7409,-2.0842,-1.9998,-0.1992,49.27883789,-122.98104281,0.00000000,
13.6860,-0.0074,0.7355,0.1116,1.0189,1.5095,-3.7409,-2.0842,-1.9998,-0.1992,49.27883789,-122.98104281,0.00000000,
13.7040,-0.0074,0.7355,0.1116,-1.9812,0.0048,-4.7039,-2.0842,-1.9998,-0.1992,49.27883789,-122.98104281,0.00000000,
13.7630,-0.0074,0.7355,0.1116,-1.9812,0.0048,-4.7039,-1.2866,-0.8936,-0.1347,49.27883789,-122.98104281,0.00000000,
13.7650,0.3541,0.6532,0.1856,-1.9812,0.0048,-4.7039,-1.2866,-0.8936,-0.1347,49.27883789,-122.98104281,0.00000000,
13.7810,0.3541,0.6532,0.1856,0.2506,-2.5480,-2.3322,-1.2866,-0.8936,-0.1347,49.27883789,-122.98104281,0.00000000,
13.8180,0.0886,0.6560,0.2246,0.2506,-2.5480,-2.3322,-1.2866,-0.8936,-0.1347,49.27883789,-122.98104281,0.00000000,
13.8190,0.0886,0.6560,0.2246,0.2506,-2.5480,-2.3322,-0.7836,0.1825,-0.6272,49.27883789,-122.98104281,0.00000000,
13.8370,0.0886,0.6560,0.2246,2.8986,-2.3422,-2.8656,-0.7836,0.1825,-0.6272,49.27883789,-122.98104281,0.00000000,
13.8950,0.0886,0.6560,0.2246,2.8986,-2.3422,-2.8656,-0.2434,-0.4467,-0.3427,49.27883789,-122.98104281,0.00000000,
13.8970,-0.1094,0.6599,0.4501,2.8986,-2.3422,-2.8656,-0.2434,-0.4467,-0.3427,49.27883789,-122.98104281,0.00000000,
13.9140,-0.1094,0.6599,0.4501,-0.6733,-2.4944,-1.1400,-0.2434,-0.4467,-0.3427,49.27883789,-122.98104281,0.00000000,
13.9520,-0.1094,0.6599,0.4501,-0.6733,-2.4944,-1.1400,-0.2871,-0.6643,-0.1945,49.27883789,-122.98104281,0.00000000,
13.9530,0.0650,0.9303,0.6942,-0.6733,-2.4944,-1.1400,-0.2871,-0.6643,-0.1945,49.27883789,-122.98104281,0.00000000,
13.9710,0.0650,0.9303,0.6942,-1.1144,-1.7721,0.0430,-0.2871,-0.6643,-0.1945,49.27883789,-122.98104281,0.00000000,
14.0270,0.0650,0.9303,0.6942,-1.1144,-1.7721,0.0430,-0.0006,-0.3884,-0.6263,49.27883789,-122.98104281,0.00000000,
14.0290,0.0906,0.8080,0.7745,-1.1144,-1.7721,0.0430,-0.0006,-0.3884,-0.6263,49.27883789,-122.98104281,0.00000000,
14.0460,0.0906,0.8080,0.7745,0.7979,0.8553,3.6941,-0.0006,-0.3884,-0.6263,49.27883789,-122.98104281,0.00000000,
14.0860,0.0906,0.8080,0.7745,0.7979,0.8553,3.6941,0.2276,-0.6118,-0.5233,49.27883789,-122.98104281,0.00000000,
14.0870,-0.0763,1.2015,0.4359,0.7979,0.8553,3.6941,0.2276,-0.6118,-0.5233,49.27883789,-122.98104281,0.00000000,
14.1040,-0.0763,1.2015,0.4359,0.3404,-0.9978,1.3847,0.2276,-0.6118,-0.5233,49.27883789,-122.98104281,0.00000000,
14.1510,-0.0763,1.2015,0.4359,0.3404,-0.9978,1.3847,0.7189,0.7014,0.5893,49.27883789,-122.98104281,0.00000000,
14.1530,0.8967,0.8247,0.2927,0.3404,-0.9978,1.3847,0.7189,0.7014,0.5893,49.27883789,-122.98104281,0.00000000,
14.1720,0.8967,0.8247,0.2927,1.1509,1.8420,0.1288,0.7189,0.7014,0.5893,49.27883789,-122.98104281,0.00000000,
14.2280,0.8967,0.8247,0.2927,1.1509,1.8420,0.1288,1.9016,1.1594,-0.4867,49.27883789,-122.98104281,0.00000000,
14.2300,-0.5126,1.1383,-0.3637,1.1509,1.8420,0.1288,1.9016,1.1594,-0.4867,49.27883789,-122.98104281,0.00000000,
14.2470,-0.5126,1.1383,-0.3637,6.5409,-0.5329,-1.2763,1.9016,1.1594,-0.4867,49.27883789,-122.98104281,0.00000000,
14.2860,-0.5126,1.1383,-0.3637,6.5409,-0.5329,-1.2763,1.6255,0.2052,0.4703,49.27883789,-122.98104281,0.00000000,
14.2870,0.3520,0.8857,0.2885,6.5409,-0.5329,-1.2763,1.6255,0.2052,0.4703,49.27883789,-122.98104281,0.00000000,
14.3040,0.3520,0.8857,0.2885,-4.7018,1.3734,-3.6609,1.6255,0.2052,0.4703,49.27883789,-122.98104281,0.00000000,
14.3610,0.3520,0.8857,0.2885,-4.7018,1.3734,-3.6609,2.1746,0.7712,-0.2369,49.27883789,-122.98104281,0.00000000,
14.3630,-0.2757,0.9364,-0.1492,-4.7018,1.3734,-3.6609,2.1746,0.7712,-0.2369,49.27883789,-122.98104281,0.00000000,
14.3810,-0.2757,0.9364,-0.1492,3.2227,-1.1552,2.5199,2.1746,0.7712,-0.2369,49.27883789,-122.98104281,0.00000000,
14.4180,-0.2757,0.9364,-0.1492,3.2227,-1.1552,2.5199,1.5750,-0.2264,0.3561,49.27883789,-122.98104281,0.00000000,
14.4180,-0.1376,0.9285,0.0014,3.2227,-1.1552,2.5199,1.5750,-0.2264,0.3561,49.27883789,-122.98104281,0.00000000,
14.4360,-0.1376,0.9285,0.0014,-3.4813,-1.1613,-0.4271,1.5750,-0.2264,0.3561,49.27883789,-122.98104281,0.00000000,
14.4940,-0.1376,0.9285,0.0014,-3.4813,-1.1613,-0.4271,1.1844,-0.0384,0.0437,49.27883789,-122.98104281,0.00000000,
14.4950,0.0910,1.0272,0.1135,-3.4813,-1.1613,-0.4271,1.1844,-0.0384,0.0437,49.27883789,-122.98104281,0.00000000,
14.5140,0.0910,1.0272,0.1135,-0.8298,0.0019,1.7503,1.1844,-0.0384,0.0437,49.27883789,-122.98104281,0.00000000,
14.5510,0.0688,0.9192,-0.0555,-0.8298,0.0019,1.7503,1.1844,-0.0384,0.0437,49.27883789,-122.98104281,0.00000000,
14.5520,0.0688,0.9192,-0.0555,-0.8298,0.0019,1.7503,0.8078,1.0744,0.1483,49.27883789,-122.98104281,0.00000000,
14.5710,0.0688,0.9192,-0.0555,1.2446,0.1340,3.1607,0.8078,1.0744,0.1483,49.27883789,-122.98104281,0.00000000,
14.6280,0.0688,0.9192,-0.0555,1.2446,0.1340,3.1607,0.6959,0.9391,0.3146,49.27883789,-122.98104281,0.00000000,
14.6300,-0.0830,1.0112,-0.1801,1.2446,0.1340,3.1607,0.6959,0.9391,0.3146,49.27883789,-122.98104281,0.00000000,
14.6470,-0.0830,1.0112,-0.1801,-0.9766,-0.2594,1.1804,0.6959,0.9391,0.3146,49.27883789,-122.98104281,0.00000000,
14.6840,-0.0830,1.0112,-0.1801,-0.9766,-0.2594,1.1804,0.6572,0.5417,0.1676,49.27883789,-122.98104281,0.00000000,
14.6850,-0.0457,1.2477,-0.0216,-0.9766,-0.2594,1.1804,0.6572,0.5417,0.1676,49.27883789,-122.98104281,0.00000000,
14.7040,-0.0457,1.2477,-0.0216,-1.6775,1.0678,1.0226,0.6572,0.5417,0.1676,49.27883789,-122.98104281,0.00000000,
14.7610,-0.0457,1.2477,-0.0216,-1.6775,1.0678,1.0226,-0.1350,0.8119,0.0404,49.27883789,-122.98104281,0.00000000,
14.7630,-0.0958,1.6103,-0.0942,-1.6775,1.0678,1.0226,-0.1350,0.8119,0.0404,49.27883789,-122.98104281,0.00000000,
14.7800,-0.0958,1.6103,-0.0942,-1.3566,3.2321,3.1529,-0.1350,0.8119,0.0404,49.27883789,-122.98104281,0.00000000,
14.8170,-0.0958,1.6103,-0.0942,-1.3566,3.2321,3.1529,-2.2326,-0.8289,-0.1881,49.27883789,-122.98104281,0.00000000,
14.8190,-0.1601,1.2883,-0.1036,-1.3566,3.2321,3.1529,-2.2326,-0.8289,-0.1881,49.27883789,-122.98104281,0.00000000,
14.8360,-0.1601,1.2883,-0.1036,-1.8784,6.4101,-1.8914,-2.2326,-0.8289,-0.1881,49.27883789,-122.98104281,0.00000000,
14.8930,-0.1601,1.2883,-0.1036,-1.8784,6.4101,-1.8914,-2.6598,-0.8394,-0.1594,49.27883789,-122.98104281,0.00000000,
14.8940,0.0861,1.3236,-0.1296,-1.8784,6.4101,-1.8914,-2.6598,-0.8394,-0.1594,49.27883789,-122.98104281,0.00000000,
14.9140,0.0861,1.3236,-0.1296,-1.4291,2.7143,-1.3521,-2.6598,-0.8394,-0.1594,49.27883789,-122.98104281,0.00000000,
14.9500,-0.0059,1.0790,-0.1792,-1.4291,2.7143,-1.3521,-2.6598,-0.8394,-0.1594,49.27883789,-122.98104281,0.00000000,
14.9510,-0.0059,1.0790,-0.1792,-1.4291,2.7143,-1.3521,-2.4214,-1.9735,-0.2676,49.27883789,-122.98104281,0.00000000,
14.9700,-0.0059,1.0790,-0.1792,-0.2957,1.7419,-4.3044,-2.4214,-1.9735,-0.2676,49.27883789,-122.98104281,0.00000000,
15.0270,-0.0059,1.0790,-0.1792,-0.2957,1.7419,-4.3044,-2.1973,-1.2851,-0.0558,49.27883789,-122.98104281,0.00000000,
15.0280,0.1830,0.7277,0.0496,-0.2957,1.7419,-4.3044,-2.1973,-1.2851,-0.0558,49.27883789,-122.98104281,0.00000000,
15.0450,0.1830,0.7277,0.0496,0.1272,0.9147,-4.6461,-2.1973,-1.2851,-0.0558,49.27883789,-122.98104281,0.00000000,
15.0840,0.1830,0.7277,0.0496,0.1272,0.9147,-4.6461,-1.3273,0.0244,-0.0415,49.27883789,-122.98104281,0.00000000,
15.0850,0.3865,0.5835,0.1500,0.1272,0.9147,-4.6461,-1.3273,0.0244,-0.0415,49.27883789,-122.98104281,0.00000000,
15.1030,0.3865,0.5835,0.1500,1.5336,-2.8411,-3.0745,-1.3273,0.0244,-0.0415,49.27883789,-122.98104281,0.00000000,
15.1610,0.3865,0.5835,0.1500,1.5336,-2.8411,-3.0745,-0.5047,0.3909,-0.5790,49.27883789,-122.98104281,0.00000000,
15.1620,-0.0111,0.5669,0.1328,1.5336,-2.8411,-3.0745,-0.5047,0.3909,-0.5790,49.27883789,-122.98104281,0.00000000,
15.1800,-0.0111,0.5669,0.1328,3.1298,-3.0550,-3.3429,-0.5047,0.3909,-0.5790,49.27883789,-122.98104281,0.00000000,
15.2180,-0.1587,0.6792,0.5218,3.1298,-3.0550,-3.3429,-0.5047,0.3909,-0.5790,49.27883789,-122.98104281,0.00000000,
15.2190,-0.1587,0.6792,0.5218,3.1298,-3.0550,-3.3429,0.0391,-0.4179,-0.1357,49.27883789,-122.98104281,0.00000000,
15.2380,-0.1587,0.6792,0.5218,-1.7449,-3.3217,-1.9485,0.0391,-0.4179,-0.1357,49.27883789,-122.98104281,0.00000000,
15.2940,-0.1587,0.6792,0.5218,-1.7449,-3.3217,-1.9485,0.0133,-0.7051,-0.2490,49.27883789,-122.98104281,0.00000000,
15.2950,0.0520,1.1147,1.0136,-1.7449,-3.3217,-1.9485,0.0133,-0.7051,-0.2490,49.27883789,-122.98104281,0.00000000,
15.3140,0.0520,1.1147,1.0136,-1.3132,-0.9710,2.1560,0.0133,-0.7051,-0.2490,49.27883789,-122.98104281,0.00000000,
15.3510,0.0520,1.1147,1.0136,-1.3132,-0.9710,2.1560,-0.1975,-0.3559,-0.6251,49.27883789,-122.98104281,0.00000000,
15.3520,0.0259,1.3402,0.6084,-1.3132,-0.9710,2.1560,-0.1975,-0.3559,-0.6251,49.27883789,-122.98104281,0.00000000,
15.3700,0.0259,1.3402,0.6084,0.7106,2.2394,5.3613,-0.1975,-0.3559,-0.6251,49.27883789,-122.98104281,0.00000000,
15.4280,0.6308,0.2100,0.3055,0.7106,2.2394,5.3613,-0.1975,-0.3559,-0.6251,49.27883789,-122.98104281,0.00000000,
15.4290,0.6308,0.2100,0.3055,0.7106,2.2394,5.3613,0.1704,0.1131,0.4345,49.27883789,-122.98104281,0.00000000,
15.4460,0.6308,0.2100,0.3055,-0.1816,2.4303,-0.1714,0.1704,0.1131,0.4345,49.27883789,-122.98104281,0.00000000,
15.4840,-0.2411,1.4498,-0.3651,-0.1816,2.4303,-0.1714,0.1704,0.1131,0.4345,49.27883789,-122.98104281,0.00000000,
15.4850,-0.2411,1.4498,-0.3651,-0.1816,2.4303,-0.1714,2.0564,1.3161,-0.4129,49.27883789,-122.98104281,0.00000000,
15.5030,-0.2411,1.4498,-0.3651,6.3837,-3.1573,0.8497,2.0564,1.3161,-0.4129,49.27883789,-122.98104281,0.00000000,
15.5610,-0.2411,1.4498,-0.3651,6.3837,-3.1573,0.8497,1.6311,0.3813,0.5048,49.27883789,-122.98104281,0.00000000,
15.5630,0.2483,0.8582,0.2561,6.3837,-3.1573,0.8497,1.6311,0.3813,0.5048,49.27883789,-122.98104281,0.00000000,
15.5800,0.2483,0.8582,0.2561,-2.6302,1.1534,-5.6185,1.6311,0.3813,0.5048,49.27883789,-122.98104281,0.00000000,
15.6170,0.2483,0.8582,0.2561,-2.6302,1.1534,-5.6185,2.1758,1.0562,-0.1336,49.27883789,-122.98104281,0.00000000,
15.6180,-0.0723,0.9817,-0.0697,-2.6302,1.1534,-5.6185,2.1758,1.0562,-0.1336,49.27883789,-122.98104281,0.00000000,
15.6360,-0.0723,0.9817,-0.0697,3.1177,-0.6703,1.7583,2.1758,1.0562,-0.1336,49.27883789,-122.98104281,0.00000000,
15.6960,-0.0723,0.9817,-0.0697,3.1177,-0.6703,1.7583,1.6194,-0.0997,0.2739,49.27883789,-122.98104281,0.00000000,
15.6970,-0.3216,0.8723,-0.0442,3.1177,-0.6703,1.7583,1.6194,-0.0997,0.2739,49.27883789,-122.98104281,0.00000000,
15.7130,-0.3216,0.8723,-0.0442,-2.7282,-0.9537,-0.2523,1.6194,-0.0997,0.2739,49.27883789,-122.98104281,0.00000000,
15.7490,-0.3216,0.8723,-0.0442,-2.7282,-0.9537,-0.2523,1.3050,-0.6310,0.1165,49.27883789,-122.98104281,0.00000000,
15.7510,0.0374,1.0127,0.0969,-2.7282,-0.9537,-0.2523,1.3050,-0.6310,0.1165,49.27883789,-122.98104281,0.00000000,
15.7700,0.0374,1.0127,0.0969,-1.9790,-0.6032,1.4016,1.3050,-0.6310,0.1165,49.27883789,-122.98104281,0.00000000,
15.8260,0.1306,0.9510,0.0437,-1.9790,-0.6032,1.4016,1.3050,-0.6310,0.1165,49.27883789,-122.98104281,0.00000000,
15.8270,0.1306,0.9510,0.0437,-1.9790,-0.6032,1.4016,0.9207,0.6868,0.0631,49.27883789,-122.98104281,0.00000000,
15.8440,0.1306,0.9510,0.0437,0.6135,0.3167,3.2355,0.9207,0.6868,0.0631,49.27883789,-122.98104281,0.00000000,
15.8840,0.1306,0.9510,0.0437,0.6135,0.3167,3.2355,0.7066,1.0060,0.3177,49.27883789,-122.98104281,0.00000000,
15.8850,-0.0977,0.9632,-0.1683,0.6135,0.3167,3.2355,0.7066,1.0060,0.3177,49.27883789,-122.98104281,0.00000000,
15.9030,-0.0977,0.9632,-0.1683,-0.1989,-0.1758,1.8680,0.7066,1.0060,0.3177,49.27883789,-122.98104281,0.00000000,
15.9610,-0.0977,0.9632,-0.1683,-0.1989,-0.1758,1.8680,0.8387,0.6239,0.2566,49.27883789,-122.98104281,0.00000000,
15.9630,-0.0788,1.1563,-0.1331,-0.1989,-0.1758,1.8680,0.8387,0.6239,0.2566,49.27883789,-122.98104281,0.00000000,
15.9790,-0.0788,1.1563,-0.1331,-2.0084,0.1477,1.2799,0.8387,0.6239,0.2566,49.27883789,-122.98104281,0.00000000,
16.0160,-0.0441,1.5260,0.0660,-2.0084,0.1477,1.2799,0.8387,0.6239,0.2566,49.27883789,-122.98104281,0.00000000,
16.0170,-0.0441,1.5260,0.0660,-2.0084,0.1477,1.2799,0.1297,0.5726,0.1439,49.27883789,-122.98104281,0.00000000,
16.0360,-0.0441,1.5260,0.0660,-1.2027,2.6838,1.6641,0.1297,0.5726,0.1439,49.27883789,-122.98104281,0.00000000,
16.0930,-0.0441,1.5260,0.0660,-1.2027,2.6838,1.6641,-1.7636,-0.0801,-0.2434,49.27883789,-122.98104281,0.00000000,
16.0940,-0.1358,1.4237,-0.1862,-1.2027,2.6838,1.6641,-1.7636,-0.0801,-0.2434,49.27883789,-122.98104281,0.00000000,
16.1130,-0.1358,1.4237,-0.1862,-1.3927,6.4552,0.7431,-1.7636,-0.0801,-0.2434,49.27883789,-122.98104281,0.00000000,
16.1590,0.1159,1.4352,-0.1368,-1.3927,6.4552,0.7431,-1.7636,-0.0801,-0.2434,49.27883789,-122.98104281,0.00000000,
16.1600,0.1159,1.4352,-0.1368,-1.3927,6.4552,0.7431,-2.8415,-0.5529,-0.2080,49.27883789,-122.98104281,0.00000000,
16.1780,0.1159,1.4352,-0.1368,-1.8948,2.8893,-1.8185,-2.8415,-0.5529,-0.2080,49.27883789,-122.98104281,0.00000000,
16.2170,-0.0033,1.0979,-0.2332,-1.8948,2.8893,-1.8185,-2.8415,-0.5529,-0.2080,49.27883789,-122.98104281,0.00000000,
16.2190,-0.0033,1.0979,-0.2332,-1.8948,2.8893,-1.8185,-2.3970,-1.3151,-0.5776,49.27883789,-122.98104281,0.00000000,
16.2360,-0.0033,1.0979,-0.2332,1.2485,3.4307,-4.0972,-2.3970,-1.3151,-0.5776,49.27883789,-122.98104281,0.00000000,
16.2950,-0.0033,1.0979,-0.2332,1.2485,3.4307,-4.0972,-2.3448,-1.9026,-0.1036,49.27883789,-122.98104281,0.00000000,
16.2970,0.0687,0.8232,-0.0397,1.2485,3.4307,-4.0972,-2.3448,-1.9026,-0.1036,49.27883789,-122.98104281,0.00000000,
16.3130,0.0687,0.8232,-0.0397,-0.7799,0.9048,-5.1624,-2.3448,-1.9026,-0.1036,49.27883789,-122.98104281,0.00000000,
16.3510,0.0687,0.8232,-0.0397,-0.7799,0.9048,-5.1624,-1.5781,-0.5772,0.2155,49.27883789,-122.98104281,0.00000000,
16.3520,0.4550,0.5446,0.1975,-0.7799,0.9048,-5.1624,-1.5781,-0.5772,0.2155,49.27883789,-122.98104281,0.00000000,
16.3690,0.4550,0.5446,0.1975,0.6892,-2.0051,-3.8436,-1.5781,-0.5772,0.2155,49.27883789,-122.98104281,0.00000000,
16.4270,0.1820,0.5338,0.0746,0.6892,-2.0051,-3.8436,-1.5781,-0.5772,0.2155,49.27883789,-122.98104281,0.00000000,
16.4290,0.1820,0.5338,0.0746,0.6892,-2.0051,-3.8436,-0.4909,0.9915,-0.6513,49.27883789,-122.98104281,0.00000000,
16.4480,0.1820,0.5338,0.0746,4.7856,-3.8057,-2.4367,-0.4909,0.9915,-0.6513,49.27883789,-122.98104281,0.00000000,
16.4840,-0.3640,0.6173,0.4870,4.7856,-3.8057,-2.4367,-0.4909,0.9915,-0.6513,49.27883789,-122.98104281,0.00000000,
16.4850,-0.3640,0.6173,0.4870,4.7856,-3.8057,-2.4367,-0.1045,-0.2669,-0.5331,49.27883789,-122.98104281,0.00000000,
16.5030,-0.3640,0.6173,0.4870,-0.4573,-3.4546,-3.0785,-0.1045,-0.2669,-0.5331,49.27883789,-122.98104281,0.00000000,
16.5610,-0.0744,0.9558,0.8917,-0.4573,-3.4546,-3.0785,-0.1045,-0.2669,-0.5331,49.27883789,-122.98104281,0.00000000,
16.5620,-0.0744,0.9558,0.8917,-0.4573,-3.4546,-3.0785,-0.0408,-0.9296,0.0175,49.27883789,-122.98104281,0.00000000,
16.5790,-0.0744,0.9558,0.8917,-3.5128,-2.3776,1.7029,-0.0408,-0.9296,0.0175,49.27883789,-122.98104281,0.00000000,
16.6170,-0.0744,0.9558,0.8917,-3.5128,-2.3776,1.7029,0.1655,-0.3336,-0.5125,49.27883789,-122.98104281,0.00000000,
16.6180,0.2656,1.1379,0.6682,-3.5128,-2.3776,1.7029,0.1655,-0.3336,-0.5125,49.27883789,-122.98104281,0.00000000,
16.6360,0.2656,1.1379,0.6682,0.3888,1.9971,4.9817,0.1655,-0.3336,-0.5125,49.27883789,-122.98104281,0.00000000,
16.6950,0.2656,1.1379,0.6682,0.3888,1.9971,4.9817,-0.0239,-0.4102,0.4649,49.27883789,-122.98104281,0.00000000,
16.6960,0.3894,0.8194,0.3396,0.3888,1.9971,4.9817,-0.0239,-0.4102,0.4649,49.27883789,-122.98104281,0.00000000,
16.7110,0.3894,0.8194,0.3396,2.0827,3.1643,1.0230,-0.0239,-0.4102,0.4649,49.27883789,-122.98104281,0.00000000,
16.7510,0.3894,0.8194,0.3396,2.0827,3.1643,1.0230,1.6731,2.0404,-0.2888,49.27883789,-122.98104281,0.00000000,
16.7530,0.1721,1.1023,0.0776,2.0827,3.1643,1.0230,1.6731,2.0404,-0.2888,49.27883789,-122.98104281,0.00000000,
16.7690,0.1721,1.1023,0.0776,6.7463,-5.5069,0.1037,1.6731,2.0404,-0.2888,49.27883789,-122.98104281,0.00000000,
16.8270,-0.2321,0.9092,-0.0939,6.7463,-5.5069,0.1037,1.6731,2.0404,-0.2888,49.27883789,-122.98104281,0.00000000,
16.8290,-0.2321,0.9092,-0.0939,6.7463,-5.5069,0.1037,1.2706,0.2201,0.2179,49.27883789,-122.98104281,0.00000000,
16.8450,-0.2321,0.9092,-0.0939,-3.2510,4.0595,-4.3644,1.2706,0.2201,0.2179,49.27883789,-122.98104281,0.00000000,
16.8840,0.3817,0.9451,0.1834,-3.2510,4.0595,-4.3644,1.2706,0.2201,0.2179,49.27883789,-122.98104281,0.00000000,
16.8850,0.3817,0.9451,0.1834,-3.2510,4.0595,-4.3644,2.0637,1.2346,0.2324,49.27883789,-122.98104281,0.00000000,
16.9030,0.3817,0.9451,0.1834,1.6732,-1.8066,1.6719,2.0637,1.2346,0.2324,49.27883789,-122.98104281,0.00000000,
16.9600,0.3817,0.9451,0.1834,1.6732,-1.8066,1.6719,1.7960,0.9622,0.0512,49.27883789,-122.98104281,0.00000000,
16.9620,-0.4574,0.9095,-0.1654,1.6732,-1.8066,1.6719,1.7960,0.9622,0.0512,49.27883789,-122.98104281,0.00000000,
16.9780,-0.4574,0.9095,-0.1654,1.0075,0.1270,0.1460,1.7960,0.9622,0.0512,49.27883789,-122.98104281,0.00000000,
17.0160,-0.4574,0.9095,-0.1654,1.0075,0.1270,0.1460,1.5043,-0.5140,0.3333,49.27883789,-122.98104281,0.00000000,
17.0170,-0.1178,0.9724,-0.0036,1.0075,0.1270,0.1460,1.5043,-0.5140,0.3333,49.27883789,-122.98104281,0.00000000,
17.0340,-0.1178,0.9724,-0.0036,-4.4813,-1.2955,0.1805,1.5043,-0.5140,0.3333,49.27883789,-122.98104281,0.00000000,
17.0940,-0.1178,0.9724,-0.0036,-4.4813,-1.2955,0.1805,1.2408,0.1089,0.1856,49.27883789,-122.98104281,0.00000000,
17.0960,0.2007,0.9520,0.0824,-4.4813,-1.2955,0.1805,1.2408,0.1089,0.1856,49.27883789,-122.98104281,0.00000000,
17.1120,0.2007,0.9520,0.0824,-0.2242,0.2447,2.2703,1.2408,0.1089,0.1856,49.27883789,-122.98104281,0.00000000,
17.1580,0.2007,0.9520,0.0824,-0.2242,0.2447,2.2703,0.7834,1.0287,0.4352,49.27883789,-122.98104281,0.00000000,
17.1600,0.0063,0.9658,-0.0933,-0.2242,0.2447,2.2703,0.7834,1.0287,0.4352,49.27883789,-122.98104281,0.00000000,
17.1790,0.0063,0.9658,-0.0933,1.4991,-0.4673,2.7735,0.7834,1.0287,0.4352,49.27883789,-122.98104281,0.00000000,
17.2160,-0.1517,1.1219,-0.0803,1.4991,-0.4673,2.7735,0.7834,1.0287,0.4352,49.27883789,-122.98104281,0.00000000,
17.2180,-0.1517,1.1219,-0.0803,1.4991,-0.4673,2.7735,0.7376,0.8096,0.3156,49.27883789,-122.98104281,0.00000000,
17.2350,-0.1517,1.1219,-0.0803,-2.0765,0.4746,1.5862,0.7376,0.8096,0.3156,49.27883789,-122.98104281,0.00000000,
17.2940,-0.1517,1.1219,-0.0803,-2.0765,0.4746,1.5862,0.1639,0.2176,0.0908,49.27883789,-122.98104281,0.00000000,
17.2950,-0.0656,1.4668,0.0881,-2.0765,0.4746,1.5862,0.1639,0.2176,0.0908,49.27883789,-122.98104281,0.00000000,
17.3120,-0.0656,1.4668,0.0881,-1.8863,2.3197,1.9579,0.1639,0.2176,0.0908,49.27883789,-122.98104281,0.00000000,
17.3480,-0.0551,1.4555,-0.2725,-1.8863,2.3197,1.9579,0.1639,0.2176,0.0908,49.27883789,-122.98104281,0.00000000,
17.3490,-0.0551,1.4555,-0.2725,-1.8863,2.3197,1.9579,-1.7489,0.0384,-0.3216,49.27883789,-122.98104281,0.00000000,
17.3680,-0.0551,1.4555,-0.2725,-1.2894,6.0825,1.2305,-1.7489,0.0384,-0.3216,49.27883789,-122.98104281,0.00000000,
17.4250,-0.0551,1.4555,-0.2725,-1.2894,6.0825,1.2305,-3.1073,-0.4767,0.0146,49.27883789,-122.98104281,0.00000000,
17.4260,0.1653,1.4882,-0.0643,-1.2894,6.0825,1.2305,-3.1073,-0.4767,0.0146,49.27883789,-122.98104281,0.00000000,
17.4450,0.1653,1.4882,-0.0643,-1.2143,2.8795,-3.2068,-3.1073,-0.4767,0.0146,49.27883789,-122.98104281,0.00000000,
17.4840,-0.0391,1.0920,-0.3044,-1.2143,2.8795,-3.2068,-3.1073,-0.4767,0.0146,49.27883789,-122.98104281,0.00000000,
17.4860,-0.0391,1.0920,-0.3044,-1.2143,2.8795,-3.2068,-2.2333,-0.5926,-0.6750,49.27883789,-122.98104281,0.00000000,
17.5020,-0.0391,1.0920,-0.3044,1.5230,4.3958,-3.0359,-2.2333,-0.5926,-0.6750,49.27883789,-122.98104281,0.00000000,
17.5600,0.0112,0.8171,-0.0605,1.5230,4.3958,-3.0359,-2.2333,-0.5926,-0.6750,49.27883789,-122.98104281,0.00000000,
17.5610,0.0112,0.8171,-0.0605,1.5230,4.3958,-3.0359,-2.3778,-2.2552,-0.4326,49.27883789,-122.98104281,0.00000000,
17.5770,0.0112,0.8171,-0.0605,-1.4339,0.8070,-6.3543,-2.3778,-2.2552,-0.4326,49.27883789,-122.98104281,0.00000000,
17.6150,0.0112,0.8171,-0.0605,-1.4339,0.8070,-6.3543,-1.4838,-1.4863,-0.0591,49.27883789,-122.98104281,0.00000000,
17.6160,0.3887,0.5346,0.2313,-1.4339,0.8070,-6.3543,-1.4838,-1.4863,-0.0591,49.27883789,-122.98104281,0.00000000,
17.6350,0.3887,0.5346,0.2313,0.2832,-2.1573,-3.9238,-1.4838,-1.4863,-0.0591,49.27883789,-122.98104281,0.00000000,
17.6920,0.3887,0.5346,0.2313,0.2832,-2.1573,-3.9238,-0.3782,0.6974,-0.5036,49.27883789,-122.98104281,0.00000000,
17.6940,0.2572,0.5274,0.1542,0.2832,-2.1573,-3.9238,-0.3782,0.6974,-0.5036,49.27883789,-122.98104281,0.00000000,
17.7110,0.2572,0.5274,0.1542,4.0552,-3.8209,-1.6634,-0.3782,0.6974,-0.5036,49.27883789,-122.98104281,0.00000000,
17.7490,0.2572,0.5274,0.1542,4.0552,-3.8209,-1.6634,-0.0122,-0.1836,-0.2825,49.27883789,-122.98104281,0.00000000,
17.7500,-0.1999,0.7392,0.4356,4.0552,-3.8209,-1.6634,-0.0122,-0.1836,-0.2825,49.27883789,-122.98104281,0.00000000,
17.7670,-0.1999,0.7392,0.4356,0.7100,-3.4286,-2.5105,-0.0122,-0.1836,-0.2825,49.27883789,-122.98104281,0.00000000,
17.8250,-0.0113,0.9699,0.8527,0.7100,-3.4286,-2.5105,-0.0122,-0.1836,-0.2825,49.27883789,-122.98104281,0.00000000,
17.8260,-0.0113,0.9699,0.8527,0.7100,-3.4286,-2.5105,-0.1317,-0.5688,-0.0383,49.27883789,-122.98104281,0.00000000,
17.8430,-0.0113,0.9699,0.8527,-2.3459,-0.8803,1.2823,-0.1317,-0.5688,-0.0383,49.27883789,-122.98104281,0.00000000,
17.8820,-0.0113,0.9699,0.8527,-2.3459,-0.8803,1.2823,0.2179,-0.1669,-0.5959,49.27883789,-122.98104281,0.00000000,
17.8830,0.1583,0.8612,0.6847,-2.3459,-0.8803,1.2823,0.2179,-0.1669,-0.5959,49.27883789,-122.98104281,0.00000000,
17.9000,0.1583,0.8612,0.6847,0.7829,1.0441,4.7850,0.2179,-0.1669,-0.5959,49.27883789,-122.98104281,0.00000000,
17.9580,-0.1542,1.2594,0.5158,0.7829,1.0441,4.7850,0.2179,-0.1669,-0.5959,49.27883789,-122.98104281,0.00000000,
17.9590,-0.1542,1.2594,0.5158,0.7829,1.0441,4.7850,-0.0455,-0.4381,-0.2057,49.27883789,-122.98104281,0.00000000,
17.9770,-0.1542,1.2594,0.5158,0.8861,-0.2136,1.5112,-0.0455,-0.4381,-0.2057,49.27883789,-122.98104281,0.00000000,
18.0140,0.7453,0.6358,0.3444,0.8861,-0.2136,1.5112,-0.0455,-0.4381,-0.2057,49.27883789,-122.98104281,0.00000000,
18.0150,0.7453,0.6358,0.3444,0.8861,-0.2136,1.5112,0.7245,0.9569,0.3631,49.27883789,-122.98104281,0.00000000,
18.0350,0.7453,0.6358,0.3444,0.8710,0.2595,-0.3811,0.7245,0.9569,0.3631,49.27883789,-122.98104281,0.00000000,
18.0920,-0.4232,1.1397,-0.4362,0.8710,0.2595,-0.3811,0.7245,0.9569,0.3631,49.27883789,-122.98104281,0.00000000,
18.0940,-0.4232,1.1397,-0.4362,0.8710,0.2595,-0.3811,1.5789,0.8800,-0.1924,49.27883789,-122.98104281,0.00000000,
18.1100,-0.4232,1.1397,-0.4362,3.5302,0.1383,-0.7477,1.5789,0.8800,-0.1924,49.27883789,-122.98104281,0.00000000,
18.1560,-0.4232,1.1397,-0.4362,3.5302,0.1383,-0.7477,1.5600,0.5895,0.4418,49.27883789,-122.98104281,0.00000000,
18.1570,0.4183,0.8983,0.2938,3.5302,0.1383,-0.7477,1.5600,0.5895,0.4418,49.27883789,-122.98104281,0.00000000,
18.1760,0.4183,0.8983,0.2938,-1.4695,0.1782,-2.6794,1.5600,0.5895,0.4418,49.27883789,-122.98104281,0.00000000,
18.2150,-0.2716,0.9873,-0.1197,-1.4695,0.1782,-2.6794,1.5600,0.5895,0.4418,49.27883789,-122.98104281,0.00000000,
18.2170,-0.2716,0.9873,-0.1197,-1.4695,0.1782,-2.6794,1.8967,1.1816,-0.0833,49.27883789,-122.98104281,0.00000000,
18.2340,-0.2716,0.9873,-0.1197,3.0165,-0.5812,1.5255,1.8967,1.1816,-0.0833,49.27883789,-122.98104281,0.00000000,
18.2910,-0.2716,0.9873,-0.1197,3.0165,-0.5812,1.5255,1.4686,-0.1847,0.3458,49.27883789,-122.98104281,0.00000000,
18.2920,-0.2366,0.9063,-0.0019,3.0165,-0.5812,1.5255,1.4686,-0.1847,0.3458,49.27883789,-122.98104281,0.00000000,
18.3100,-0.2366,0.9063,-0.0019,-3.7025,-0.6877,-0.5460,1.4686,-0.1847,0.3458,49.27883789,-122.98104281,0.00000000,
18.3480,-0.2366,0.9063,-0.0019,-3.7025,-0.6877,-0.5460,1.2923,-0.4749,0.2516,49.27883789,-122.98104281,0.00000000,
18.3490,0.1015,0.9936,0.0782,-3.7025,-0.6877,-0.5460,1.2923,-0.4749,0.2516,49.27883789,-122.98104281,0.00000000,
18.3670,0.1015,0.9936,0.0782,-1.6318,-0.4330,1.5386,1.2923,-0.4749,0.2516,49.27883789,-122.98104281,0.00000000,
18.4250,0.1015,0.9936,0.0782,-1.6318,-0.4330,1.5386,0.8795,0.8658,0.1409,49.27883789,-122.98104281,0.00000000,
18.4270,0.0665,0.9631,0.0846,-1.6318,-0.4330,1.5386,0.8795,0.8658,0.1409,49.27883789,-122.98104281,0.00000000,
18.4470,0.0665,0.9631,0.0846,1.1675,0.1259,3.2130,0.8795,0.8658,0.1409,49.27883789,-122.98104281,0.00000000,
18.4810,-0.3059,0.9377,-0.0808,1.1675,0.1259,3.2130,0.8795,0.8658,0.1409,49.27883789,-122.98104281,0.00000000,
18.4820,-0.3059,0.9377,-0.0808,1.1675,0.1259,3.2130,0.8537,0.9117,0.3366,49.27883789,-122.98104281,0.00000000,
18.5000,-0.3059,0.9377,-0.0808,-1.0277,-0.3209,2.5139,0.8537,0.9117,0.3366,49.27883789,-122.98104281,0.00000000,
18.5590,-0.3059,0.9377,-0.0808,-1.0277,-0.3209,2.5139,0.6806,-0.0388,0.2095,49.27883789,-122.98104281,0.00000000,
18.5610,0.0056,1.2219,-0.1465,-1.0277,-0.3209,2.5139,0.6806,-0.0388,0.2095,49.27883789,-122.98104281,0.00000000,
18.5770,0.0056,1.2219,-0.1465,-3.8864,0.3789,1.2378,0.6806,-0.0388,0.2095,49.27883789,-122.98104281,0.00000000,
18.6140,-0.0483,1.6320,-0.0230,-3.8864,0.3789,1.2378,0.6806,-0.0388,0.2095,49.27883789,-122.98104281,0.00000000,
18.6150,-0.0483,1.6320,-0.0230,-3.8864,0.3789,1.2378,-0.0677,0.4616,0.0744,49.27883789,-122.98104281,0.00000000,
18.6340,-0.0483,1.6320,-0.0230,0.0102,3.4459,1.7293,-0.0677,0.4616,0.0744,49.27883789,-122.98104281,0.00000000,
18.6920,-0.0287,1.3104,-0.1404,0.0102,3.4459,1.7293,-0.0677,0.4616,0.0744,49.27883789,-122.98104281,0.00000000,
18.6940,-0.0287,1.3104,-0.1404,0.0102,3.4459,1.7293,-1.9165,-0.0346,-0.1399,49.27883789,-122.98104281,0.00000000,
18.7090,-0.0287,1.3104,-0.1404,-1.4423,6.0202,0.2741,-1.9165,-0.0346,-0.1399,49.27883789,-122.98104281,0.00000000,
18.7480,-0.0287,1.3104,-0.1404,-1.4423,6.0202,0.2741,-2.8084,-0.7713,-0.3940,49.27883789,-122.98104281,0.00000000,
18.7490,0.2758,1.3255,-0.1552,-1.4423,6.0202,0.2741,-2.8084,-0.7713,-0.3940,49.27883789,-122.98104281,0.00000000,
18.7680,0.2758,1.3255,-0.1552,0.0021,2.6369,-2.7273,-2.8084,-0.7713,-0.3940,49.27883789,-122.98104281,0.00000000,
18.8260,0.2758,1.3255,-0.1552,0.0021,2.6369,-2.7273,-2.2975,-0.3852,-0.3258,49.27883789,-122.98104281,0.00000000,
18.8280,0.0850,1.0711,-0.0979,0.0021,2.6369,-2.7273,-2.2975,-0.3852,-0.3258,49.27883789,-122.98104281,0.00000000,
18.8440,0.0850,1.0711,-0.0979,2.3848,2.7209,-3.4103,-2.2975,-0.3852,-0.3258,49.27883789,-122.98104281,0.00000000,
18.8810,-0.0222,0.8219,-0.0130,2.3848,2.7209,-3.4103,-2.2975,-0.3852,-0.3258,49.27883789,-122.98104281,0.00000000,
18.8820,-0.0222,0.8219,-0.0130,2.3848,2.7209,-3.4103,-2.2603,-1.2465,-0.0908,49.27883789,-122.98104281,0.00000000,
18.9000,-0.0222,0.8219,-0.0130,-0.4530,0.8549,-4.6198,-2.2603,-1.2465,-0.0908,49.27883789,-122.98104281,0.00000000,
18.9570,0.3998,0.5027,0.1774,-0.4530,0.8549,-4.6198,-2.2603,-1.2465,-0.0908,49.27883789,-122.98104281,0.00000000,
18.9590,0.3998,0.5027,0.1774,-0.4530,0.8549,-4.6198,-1.4391,-0.6608,0.1069,49.27883789,-122.98104281,0.00000000,
18.9770,0.3998,0.5027,0.1774,0.0762,-2.1451,-3.7302,-1.4391,-0.6608,0.1069,49.27883789,-122.98104281,0.00000000,
19.0140,0.3998,0.5027,0.1774,0.0762,-2.1451,-3.7302,-0.5134,0.7437,-0.4368,49.27883789,-122.98104281,0.00000000,
19.0150,0.1369,0.5027,0.2349,0.0762,-2.1451,-3.7302,-0.5134,0.7437,-0.4368,49.27883789,-122.98104281,0.00000000,
19.0330,0.1369,0.5027,0.2349,3.7332,-4.2054,-2.4649,-0.5134,0.7437,-0.4368,49.27883789,-122.98104281,0.00000000,
19.0910,0.1369,0.5027,0.2349,3.7332,-4.2054,-2.4649,-0.0881,-0.0402,-0.3238,49.27883789,-122.98104281,0.00000000,
19.0920,-0.2579,0.7046,0.6042,3.7332,-4.2054,-2.4649,-0.0881,-0.0402,-0.3238,49.27883789,-122.98104281,0.00000000,
19.1110,-0.2579,0.7046,0.6042,-0.2693,-3.3836,-1.3604,-0.0881,-0.0402,-0.3238,49.27883789,-122.98104281,0.00000000,
19.1570,-0.0449,1.0140,0.9471,-0.2693,-3.3836,-1.3604,-0.0881,-0.0402,-0.3238,49.27883789,-122.98104281,0.00000000,
19.1580,-0.0449,1.0140,0.9471,-0.2693,-3.3836,-1.3604,-0.0692,-0.8802,-0.1533,49.27883789,-122.98104281,0.00000000,
19.1750,-0.0449,1.0140,0.9471,-2.6839,-0.9094,2.6710,-0.0692,-0.8802,-0.1533,49.27883789,-122.98104281,0.00000000,
19.2140,0.2737,1.0095,0.6758,-2.6839,-0.9094,2.6710,-0.0692,-0.8802,-0.1533,49.27883789,-122.98104281,0.00000000,
19.2160,0.2737,1.0095,0.6758,-2.6839,-0.9094,2.6710,0.1247,-0.1526,-0.5712,49.27883789,-122.98104281,0.00000000,
19.2340,0.2737,1.0095,0.6758,0.9502,0.6199,4.5671,0.1247,-0.1526,-0.5712,49.27883789,-122.98104281,0.00000000,
19.2920,0.2737,1.0095,0.6758,0.9502,0.6199,4.5671,0.0528,0.0087,0.5731,49.27883789,-122.98104281,0.00000000,
19.2940,0.4488,0.6522,0.2903,0.9502,0.6199,4.5671,0.0528,0.0087,0.5731,49.27883789,-122.98104281,0.00000000,
19.3110,0.4488,0.6522,0.2903,0.9433,3.7205,2.2768,0.0528,0.0087,0.5731,49.27883789,-122.98104281,0.00000000,
19.3470,0.4488,0.6522,0.2903,0.9433,3.7205,2.2768,1.8318,1.7898,-0.3949,49.27883789,-122.98104281,0.00000000,
19.3480,-0.0412,1.3144,-0.1017,0.9433,3.7205,2.2768,1.8318,1.7898,-0.3949,49.27883789,-122.98104281,0.00000000,
19.3660,-0.0412,1.3144,-0.1017,7.4983,-5.5573,-0.2329,1.8318,1.7898,-0.3949,49.27883789,-122.98104281,0.00000000,
19.4250,-0.0412,1.3144,-0.1017,7.4983,-5.5573,-0.2329,1.3288,0.2232,0.4328,49.27883789,-122.98104281,0.00000000,
19.4270,-0.0021,0.9016,0.1095,7.4983,-5.5573,-0.2329,1.3288,0.2232,0.4328,49.27883789,-122.98104281,0.00000000,
19.4460,-0.0021,0.9016,0.1095,-4.0126,4.0746,-6.2294,1.3288,0.2232,0.4328,49.27883789,-122.98104281,0.00000000,
19.4800,-0.0021,0.9016,0.1095,-4.0126,4.0746,-6.2294,2.2414,1.2077,0.0118,49.27883789,-122.98104281,0.00000000,
19.4810,0.1016,0.9580,0.0579,-4.0126,4.0746,-6.2294,2.2414,1.2077,0.0118,49.27883789,-122.98104281,0.00000000,
19.5000,0.1016,0.9580,0.0579,2.8602,-1.5656,2.3826,2.2414,1.2077,0.0118,49.27883789,-122.98104281,0.00000000,
19.5590,0.1016,0.9580,0.0579,2.8602,-1.5656,2.3826,1.7281,0.5850,0.2020,49.27883789,-122.98104281,0.00000000,
19.5610,-0.4005,0.8613,-0.0944,2.8602,-1.5656,2.3826,1.7281,0.5850,0.2020,49.27883789,-122.98104281,0.00000000,
19.5750,-0.4005,0.8613,-0.0944,-1.2772,-0.2913,-0.2944,1.7281,0.5850,0.2020,49.27883789,-122.98104281,0.00000000,
19.6150,-0.4005,0.8613,-0.0944,-1.2772,-0.2913,-0.2944,1.4214,-0.4159,0.3191,49.27883789,-122.98104281,0.00000000,
19.6160,-0.0546,1.0228,0.0057,-1.2772,-0.2913,-0.2944,1.4214,-0.4159,0.3191,49.27883789,-122.98104281,0.00000000,
19.6340,-0.0546,1.0228,0.0057,-3.1464,-1.1986,0.8489,1.4214,-0.4159,0.3191,49.27883789,-122.98104281,0.00000000,
19.6910,-0.0546,1.0228,0.0057,-3.1464,-1.1986,0.8489,0.9465,0.3286,0.1123,49.27883789,-122.98104281,0.00000000,
19.6920,0.1620,0.9871,0.1271,-3.1464,-1.1986,0.8489,0.9465,0.3286,0.1123,49.27883789,-122.98104281,0.00000000,
19.7090,0.1620,0.9871,0.1271,-0.0966,0.5437,2.2214,0.9465,0.3286,0.1123,49.27883789,-122.98104281,0.00000000,
19.7470,0.1620,0.9871,0.1271,-0.0966,0.5437,2.2214,0.6203,1.1381,0.2682,49.27883789,-122.98104281,0.00000000,
19.7480,-0.0732,0.9594,-0.0912,-0.0966,0.5437,2.2214,0.6203,1.1381,0.2682,49.27883789,-122.98104281,0.00000000,
19.7670,-0.0732,0.9594,-0.0912,1.0145,-0.0660,2.7599,0.6203,1.1381,0.2682,49.27883789,-122.98104281,0.00000000,
19.8240,-0.0732,0.9594,-0.0912,1.0145,-0.0660,2.7599,0.7743,0.5389,0.2315,49.27883789,-122.98104281,0.00000000,
19.8260,-0.0998,1.0046,-0.1805,1.0145,-0.0660,2.7599,0.7743,0.5389,0.2315,49.27883789,-122.98104281,0.00000000,
19.8430,-0.0998,1.0046,-0.1805,-2.1865,-0.0438,1.3463,0.7743,0.5389,0.2315,49.27883789,-122.98104281,0.00000000,
19.8800,-0.0998,1.0046,-0.1805,-2.1865,-0.0438,1.3463,0.5781,0.4401,0.1470,49.27883789,-122.98104281,0.00000000,
19.8810,0.0872,1.3033,0.0436,-2.1865,-0.0438,1.3463,0.5781,0.4401,0.1470,49.27883789,-122.98104281,0.00000000,
19.8990,0.0872,1.3033,0.0436,-0.9343,1.0982,1.1581,0.5781,0.4401,0.1470,49.27883789,-122.98104281,0.00000000,
19.9560,-0.1053,1.5898,-0.1686,-0.9343,1.0982,1.1581,0.5781,0.4401,0.1470,49.27883789,-122.98104281,0.00000000,
19.9580,-0.1053,1.5898,-0.1686,-0.9343,1.0982,1.1581,-0.5256,0.4435,-0.0326,49.27883789,-122.98104281,0.00000000,
19.9750,-0.1053,1.5898,-0.1686,-0.5521,4.2424,2.5157,-0.5256,0.4435,-0.0326,49.27883789,-122.98104281,0.00000000,
20.0130,-0.1053,1.5898,-0.1686,-0.5521,4.2424,2.5157,-2.3890,-0.3772,0.0113,49.27883789,-122.98104281,0.00000000,
20.0140,-0.1228,1.2836,-0.0803,-0.5521,4.2424,2.5157,-2.3890,-0.3772,0.0113,49.27883789,-122.98104281,0.00000000,
20.0320,-0.1228,1.2836,-0.0803,-2.2642,4.5547,-1.0992,-2.3890,-0.3772,0.0113,49.27883789,-122.98104281,0.00000000,
20.0900,0.0954,1.2338,-0.1793,-2.2642,4.5547,-1.0992,-2.3890,-0.3772,0.0113,49.27883789,-122.98104281,0.00000000,
20.0920,0.0954,1.2338,-0.1793,-2.2642,4.5547,-1.0992,-2.2581,-0.6029,-0.3146,49.27883789,-122.98104281,0.00000000,
20.1080,0.0954,1.2338,-0.1793,-0.7745,3.4643,-2.1137,-2.2581,-0.6029,-0.3146,49.27883789,-122.98104281,0.00000000,
20.1550,-0.0032,1.0380,-0.1755,-0.7745,3.4643,-2.1137,-2.2581,-0.6029,-0.3146,49.27883789,-122.98104281,0.00000000,
20.1570,-0.0032,1.0380,-0.1755,-0.7745,3.4643,-2.1137,-2.3987,-1.6356,-0.3488,49.27883789,-122.98104281,0.00000000,
20.1750,-0.0032,1.0380,-0.1755,0.0286,1.2840,-4.8223,-2.3987,-1.6356,-0.3488,49.27883789,-122.98104281,0.00000000,
20.2140,-0.0032,1.0380,-0.1755,0.0286,1.2840,-4.8223,-2.1118,-1.7836,-0.2769,49.27883789,-122.98104281,0.00000000,
20.2160,0.0725,0.7683,0.1204,0.0286,1.2840,-4.8223,-2.1118,-1.7836,-0.2769,49.27883789,-122.98104281,0.00000000,
20.2320,0.0725,0.7683,0.1204,-0.6960,0.3794,-4.0445,-2.1118,-1.7836,-0.2769,49.27883789,-122.98104281,0.00000000,
20.2890,0.0725,0.7683,0.1204,-0.6960,0.3794,-4.0445,-1.3971,-0.3847,-0.1448,49.27883789,-122.98104281,0.00000000,
20.2900,0.3978,0.6392,0.1898,-0.6960,0.3794,-4.0445,-1.3971,-0.3847,-0.1448,49.27883789,-122.98104281,0.00000000,
20.3080,0.3978,0.6392,0.1898,1.1803,-2.1093,-2.6545,-1.3971,-0.3847,-0.1448,49.27883789,-122.98104281,0.00000000,
20.3460,0.3978,0.6392,0.1898,1.1803,-2.1093,-2.6545,-0.8498,0.4033,-0.5188,49.27883789,-122.98104281,0.00000000,
20.3470,0.0443,0.5994,0.2376,1.1803,-2.1093,-2.6545,-0.8498,0.4033,-0.5188,49.27883789,-122.98104281,0.00000000,
20.3650,0.0443,0.5994,0.2376,3.2604,-2.4914,-2.8569,-0.8498,0.4033,-0.5188,49.27883789,-122.98104281,0.00000000,
20.4220,-0.1665,0.6273,0.5605,3.2604,-2.4914,-2.8569,-0.8498,0.4033,-0.5188,49.27883789,-122.98104281,0.00000000,
20.4230,-0.1665,0.6273,0.5605,3.2604,-2.4914,-2.8569,-0.3394,-0.1588,-0.1322,49.27883789,-122.98104281,0.00000000,
20.4420,-0.1665,0.6273,0.5605,-1.1474,-2.9341,-1.5697,-0.3394,-0.1588,-0.1322,49.27883789,-122.98104281,0.00000000,
20.4790,-0.1665,0.6273,0.5605,-1.1474,-2.9341,-1.5697,-0.0684,-0.6460,-0.2827,49.27883789,-122.98104281,0.00000000,
20.4800,-0.0213,0.8874,0.9714,-1.1474,-2.9341,-1.5697,-0.0684,-0.6460,-0.2827,49.27883789,-122.98104281,0.00000000,
20.4980,-0.0213,0.8874,0.9714,-1.3530,-1.6901,1.9669,-0.0684,-0.6460,-0.2827,49.27883789,-122.98104281,0.00000000,
20.5560,-0.0213,0.8874,0.9714,-1.3530,-1.6901,1.9669,-0.3289,-0.6989,-0.5603,49.27883789,-122.98104281,0.00000000,
20.5570,-0.1370,1.4618,0.8849,-1.3530,-1.6901,1.9669,-0.3289,-0.6989,-0.5603,49.27883789,-122.98104281,0.00000000,
20.5750,-0.1370,1.4618,0.8849,-0.2247,0.4463,4.8681,-0.3289,-0.6989,-0.5603,49.27883789,-122.98104281,0.00000000,
20.6140,-0.1370,1.4618,0.8849,-0.2247,0.4463,4.8681,0.4858,0.1930,0.5588,49.27883789,-122.98104281,0.00000000,
20.6150,0.9009,-0.0583,0.2609,-0.2247,0.4463,4.8681,0.4858,0.1930,0.5588,49.27883789,-122.98104281,0.00000000,
20.6330,0.9009,-0.0583,0.2609,-0.8772,2.7708,0.7680,0.4858,0.1930,0.5588,49.27883789,-122.98104281,0.00000000,
20.6890,0.9009,-0.0583,0.2609,-0.8772,2.7708,0.7680,2.1133,1.8118,-0.3034,49.27883789,-122.98104281,0.00000000,
20.6900,-0.2483,1.6153,-0.3218,-0.8772,2.7708,0.7680,2.1133,1.8118,-0.3034,49.27883789,-122.98104281,0.00000000,
20.7080,-0.2483,1.6153,-0.3218,7.5813,-2.8899,1.4015,2.1133,1.8118,-0.3034,49.27883789,-122.98104281,0.00000000,
20.7460,0.0611,0.8105,0.2656,7.5813,-2.8899,1.4015,2.1133,1.8118,-0.3034,49.27883789,-122.98104281,0.00000000,
20.7470,0.0611,0.8105,0.2656,7.5813,-2.8899,1.4015,1.6003,0.4358,0.4239,49.27883789,-122.98104281,0.00000000,
20.7650,0.0611,0.8105,0.2656,-2.0922,0.9781,-5.4137,1.6003,0.4358,0.4239,49.27883789,-122.98104281,0.00000000,
20.8230,0.0611,0.8105,0.2656,-2.0922,0.9781,-5.4137,2.0904,1.1486,0.0521,49.27883789,-122.98104281,0.00000000,
20.8250,0.0227,1.0363,0.0518,-2.0922,0.9781,-5.4137,2.0904,1.1486,0.0521,49.27883789,-122.98104281,0.00000000,
20.8410,0.0227,1.0363,0.0518,1.7608,-0.3855,1.5571,2.0904,1.1486,0.0521,49.27883789,-122.98104281,0.00000000,
20.8780,0.0227,1.0363,0.0518,1.7608,-0.3855,1.5571,1.6623,-0.0433,0.1732,49.27883789,-122.98104281,0.00000000,
20.8800,-0.4071,0.8528,-0.1047,1.7608,-0.3855,1.5571,1.6623,-0.0433,0.1732,49.27883789,-122.98104281,0.00000000,
20.8980,-0.4071,0.8528,-0.1047,-1.9800,-0.6558,-0.0244,1.6623,-0.0433,0.1732,49.27883789,-122.98104281,0.00000000,
20.9560,-0.4071,0.8528,-0.1047,-1.9800,-0.6558,-0.0244,1.4799,-0.7139,0.3546,49.27883789,-122.98104281,0.00000000,
20.9570,0.0354,0.9819,0.0801,-1.9800,-0.6558,-0.0244,1.4799,-0.7139,0.3546,49.27883789,-122.98104281,0.00000000,
20.9740,0.0354,0.9819,0.0801,-2.8388,-0.9619,0.8684,1.4799,-0.7139,0.3546,49.27883789,-122.98104281,0.00000000,
21.0120,0.0354,0.9819,0.0801,-2.8388,-0.9619,0.8684,1.3056,0.3916,0.2477,49.27883789,-122.98104281,0.00000000,
21.0130,0.1733,0.9235,0.0731,-2.8388,-0.9619,0.8684,1.3056,0.3916,0.2477,49.27883789,-122.98104281,0.00000000,
21.0310,0.1733,0.9235,0.0731,0.2551,-0.0523,2.8602,1.3056,0.3916,0.2477,49.27883789,-122.98104281,0.00000000,
21.0890,-0.0536,1.0025,-0.1074,0.2551,-0.0523,2.8602,1.3056,0.3916,0.2477,49.27883789,-122.98104281,0.00000000,
21.0900,-0.0536,1.0025,-0.1074,0.2551,-0.0523,2.8602,0.9176,0.9405,0.3919,49.27883789,-122.98104281,0.00000000,
21.1080,-0.0536,1.0025,-0.1074,0.7931,-0.3070,2.7012,0.9176,0.9405,0.3919,49.27883789,-122.98104281,0.00000000,
21.1550,-0.0641,1.1637,-0.0568,0.7931,-0.3070,2.7012,0.9176,0.9405,0.3919,49.27883789,-122.98104281,0.00000000,
21.1560,-0.0641,1.1637,-0.0568,0.7931,-0.3070,2.7012,0.6863,0.7168,0.2282,49.27883789,-122.98104281,0.00000000,
21.1740,-0.0641,1.1637,-0.0568,-2.0979,0.5867,1.5510,0.6863,0.7168,0.2282,49.27883789,-122.98104281,0.00000000,
21.2130,-0.1436,1.6242,-0.0577,-2.0979,0.5867,1.5510,0.6863,0.7168,0.2282,49.27883789,-122.98104281,0.00000000,
21.2140,-0.1436,1.6242,-0.0577,-2.0979,0.5867,1.5510,0.1182,0.3792,0.1252,49.27883789,-122.98104281,0.00000000,
21.2320,-0.1436,1.6242,-0.0577,-1.6983,2.9672,2.1235,0.1182,0.3792,0.1252,49.27883789,-122.98104281,0.00000000,
21.2890,-0.0626,1.3342,-0.1149,-1.6983,2.9672,2.1235,0.1182,0.3792,0.1252,49.27883789,-122.98104281,0.00000000,
21.2900,-0.0626,1.3342,-0.1149,-1.6983,2.9672,2.1235,-1.6456,-0.4821,-0.1638,49.27883789,-122.98104281,0.00000000,
21.3080,-0.0626,1.3342,-0.1149,-2.0970,6.6960,0.0339,-1.6456,-0.4821,-0.1638,49.27883789,-122.98104281,0.00000000,
21.3460,-0.0626,1.3342,-0.1149,-2.0970,6.6960,0.0339,-2.7179,-0.5198,-0.2745,49.27883789,-122.98104281,0.00000000,
21.3470,0.2115,1.3706,-0.1601,-2.0970,6.6960,0.0339,-2.7179,-0.5198,-0.2745,49.27883789,-122.98104281,0.00000000,
21.3640,0.2115,1.3706,-0.1601,-0.7492,2.6754,-1.5005,-2.7179,-0.5198,-0.2745,49.27883789,-122.98104281,0.00000000,
21.4220,0.2115,1.3706,-0.1601,-0.7492,2.6754,-1.5005,-2.3190,-1.0748,-0.4694,49.27883789,-122.98104281,0.00000000,
21.4240,0.0577,1.0990,-0.2920,-0.7492,2.6754,-1.5005,-2.3190,-1.0748,-0.4694,49.27883789,-122.98104281,0.00000000,
21.4400,0.0577,1.0990,-0.2920,1.5464,2.9097,-3.9459,-2.3190,-1.0748,-0.4694,49.27883789,-122.98104281,0.00000000,
21.4780,0.0247,0.8593,0.0549,1.5464,2.9097,-3.9459,-2.3190,-1.0748,-0.4694,49.27883789,-122.98104281,0.00000000,
21.4800,0.0247,0.8593,0.0549,1.5464,2.9097,-3.9459,-2.3616,-1.4928,-0.1977,49.27883789,-122.98104281,0.00000000,
21.4980,0.0247,0.8593,0.0549,-0.2833,0.6652,-5.1725,-2.3616,-1.4928,-0.1977,49.27883789,-122.98104281,0.00000000,
21.5550,0.0247,0.8593,0.0549,-0.2833,0.6652,-5.1725,-1.5097,-0.6688,-0.1352,49.27883789,-122.98104281,0.00000000,
21.5570,0.3835,0.6061,0.1114,-0.2833,0.6652,-5.1725,-1.5097,-0.6688,-0.1352,49.27883789,-122.98104281,0.00000000,
21.5740,0.3835,0.6061,0.1114,0.5071,-1.3695,-2.8563,-1.5097,-0.6688,-0.1352,49.27883789,-122.98104281,0.00000000,
21.6130,0.1266,0.5159,0.0954,0.5071,-1.3695,-2.8563,-1.5097,-0.6688,-0.1352,49.27883789,-122.98104281,0.00000000,
21.6140,0.1266,0.5159,0.0954,0.5071,-1.3695,-2.8563,-0.7218,0.6227,-0.5858,49.27883789,-122.98104281,0.00000000,
21.6310,0.1266,0.5159,0.0954,3.5511,-3.5277,-3.4894,-0.7218,0.6227,-0.5858,49.27883789,-122.98104281,0.00000000,
21.6890,0.1266,0.5159,0.0954,3.5511,-3.5277,-3.4894,-0.2396,-0.1981,-0.2368,49.27883789,-122.98104281,0.00000000,
21.6900,-0.1855,0.6079,0.5233,3.5511,-3.5277,-3.4894,-0.2396,-0.1981,-0.2368,49.27883789,-122.98104281,0.00000000,
21.7080,-0.1855,0.6079,0.5233,0.0330,-3.6307,-2.4762,-0.2396,-0.1981,-0.2368,49.27883789,-122.98104281,0.00000000,
21.7450,-0.1071,1.0542,0.9426,0.0330,-3.6307,-2.4762,-0.2396,-0.1981,-0.2368,49.27883789,-122.98104281,0.00000000,
21.7460,-0.1071,1.0542,0.9426,0.0330,-3.6307,-2.4762,0.1730,-0.4315,-0.2256,49.27883789,-122.98104281,0.00000000,
21.7630,-0.1071,1.0542,0.9426,-1.7953,-2.1301,2.2537,0.1730,-0.4315,-0.2256,49.27883789,-122.98104281,0.00000000,
21.8220,-0.1071,1.0542,0.9426,-1.7953,-2.1301,2.2537,-0.0647,-0.3966,-0.6092,49.27883789,-122.98104281,0.00000000,
21.8230,-0.0567,1.1464,0.7812,-1.7953,-2.1301,2.2537,-0.0647,-0.3966,-0.6092,49.27883789,-122.98104281,0.00000000,
21.8400,-0.0567,1.1464,0.7812,-0.5370,2.0153,5.2968,-0.0647,-0.3966,-0.6092,49.27883789,-122.98104281,0.00000000,
21.8780,0.6833,0.2074,0.0596,-0.5370,2.0153,5.2968,-0.0647,-0.3966,-0.6092,49.27883789,-122.98104281,0.00000000,
21.8800,0.6833,0.2074,0.0596,-0.5370,2.0153,5.2968,0.0969,-0.1948,0.7871,49.27883789,-122.98104281,0.00000000,
21.8970,0.6833,0.2074,0.0596,-1.6790,2.7567,1.6339,0.0969,-0.1948,0.7871,49.27883789,-122.98104281,0.00000000,
21.9570,0.6833,0.2074,0.0596,-1.6790,2.7567,1.6339,1.8066,2.0897,-0.3600,49.27883789,-122.98104281,0.00000000,
21.9580,0.0189,1.5575,-0.0340,-1.6790,2.7567,1.6339,1.8066,2.0897,-0.3600,49.27883789,-122.98104281,0.00000000,
21.9740,0.0189,1.5575,-0.0340,10.9011,-6.6727,1.5142,1.8066,2.0897,-0.3600,49.27883789,-122.98104281,0.00000000,
22.0110,-0.1943,0.8814,0.1809,10.9011,-6.6727,1.5142,1.8066,2.0897,-0.3600,49.27883789,-122.98104281,0.00000000,
22.0120,-0.1943,0.8814,0.1809,10.9011,-6.6727,1.5142,1.1783,0.4028,0.4628,49.27883789,-122.98104281,0.00000000,
22.0290,-0.1943,0.8814,0.1809,-3.9772,3.8574,-7.2387,1.1783,0.4028,0.4628,49.27883789,-122.98104281,0.00000000,
22.0870,-0.1943,0.8814,0.1809,-3.9772,3.8574,-7.2387,1.9464,0.4888,0.1095,49.27883789,-122.98104281,0.00000000,
22.0870,0.0819,1.0141,0.0771,-3.9772,3.8574,-7.2387,1.9464,0.4888,0.1095,49.27883789,-122.98104281,0.00000000,
22.1060,0.0819,1.0141,0.0771,0.2735,-0.3364,1.3258,1.9464,0.4888,0.1095,49.27883789,-122.98104281,0.00000000,
22.1550,0.0819,1.0141,0.0771,0.2735,-0.3364,1.3258,1.7459,0.0701,0.1921,49.27883789,-122.98104281,0.00000000,
22.1560,-0.2818,0.8760,-0.0739,0.2735,-0.3364,1.3258,1.7459,0.0701,0.1921,49.27883789,-122.98104281,0.00000000,
22.1740,-0.2818,0.8760,-0.0739,-0.7245,-0.4566,0.5463,1.7459,0.0701,0.1921,49.27883789,-122.98104281,0.00000000,
22.2120,-0.2818,0.8760,-0.0739,-0.7245,-0.4566,0.5463,1.5593,-0.5123,0.3729,49.27883789,-122.98104281,0.00000000,
22.2130,0.0410,0.9314,0.0318,-0.7245,-0.4566,0.5463,1.5593,-0.5123,0.3729,49.27883789,-122.98104281,0.00000000,
22.2300,0.0410,0.9314,0.0318,-2.0996,-0.8617,1.0062,1.5593,-0.5123,0.3729,49.27883789,-122.98104281,0.00000000,
22.2880,0.0410,0.9314,0.0318,-2.0996,-0.8617,1.0062,1.2996,0.3483,0.3523,49.27883789,-122.98104281,0.00000000,
22.2890,0.0733,0.9543,0.0722,-2.0996,-0.8617,1.0062,1.2996,0.3483,0.3523,49.27883789,-122.98104281,0.00000000,
22.3070,0.0733,0.9543,0.0722,0.1100,-0.4115,2.2785,1.2996,0.3483,0.3523,49.27883789,-122.98104281,0.00000000,
22.3450,0.0733,0.9543,0.0722,0.1100,-0.4115,2.2785,0.9230,1.0903,0.3565,49.27883789,-122.98104281,0.00000000,
22.3470,-0.0409,0.9924,-0.0069,0.1100,-0.4115,2.2785,0.9230,1.0903,0.3565,49.27883789,-122.98104281,0.00000000,
22.3630,-0.0409,0.9924,-0.0069,-0.1800,-0.0726,3.1373,0.9230,1.0903,0.3565,49.27883789,-122.98104281,0.00000000,
22.4210,-0.0409,0.9924,-0.0069,-0.1800,-0.0726,3.1373,0.5743,0.3925,0.2209,49.27883789,-122.98104281,0.00000000,
22.4220,-0.1562,1.2245,-0.1157,-0.1800,-0.0726,3.1373,0.5743,0.3925,0.2209,49.27883789,-122.98104281,0.00000000,
22.4400,-0.1562,1.2245,-0.1157,-2.4598,0.5186,1.9974,0.5743,0.3925,0.2209,49.27883789,-122.98104281,0.00000000,
22.4770,-0.1562,1.2245,-0.1157,-2.4598,0.5186,1.9974,-0.1928,0.0218,-0.0277,49.27883789,-122.98104281,0.00000000,
22.4780,-0.1078,1.7133,-0.0734,-2.4598,0.5186,1.9974,-0.1928,0.0218,-0.0277,49.27883789,-122.98104281,0.00000000,
22.4970,-0.1078,1.7133,-0.0734,-1.7010,4.3133,1.6658,-0.1928,0.0218,-0.0277,49.27883789,-122.98104281,0.00000000,
22.5540,-0.1078,1.7133,-0.0734,-1.7010,4.3133,1.6658,-2.3422,-0.2939,-0.4261,49.27883789,-122.98104281,0.00000000,
22.5550,0.1459,1.2985,-0.2134,-1.7010,4.3133,1.6658,-2.3422,-0.2939,-0.4261,49.27883789,-122.98104281,0.00000000,
22.5730,0.1459,1.2985,-0.2134,-1.1511,6.2207,-0.8274,-2.3422,-0.2939,-0.4261,49.27883789,-122.98104281,0.00000000,
22.6110,0.1459,1.2985,-0.2134,-1.1511,6.2207,-0.8274,-2.6090,-0.5638,-0.4066,49.27883789,-122.98104281,0.00000000,
22.6120,0.3130,1.2444,-0.1007,-1.1511,6.2207,-0.8274,-2.6090,-0.5638,-0.4066,49.27883789,-122.98104281,0.00000000,
22.6300,0.3130,1.2444,-0.1007,1.9034,2.5616,-3.3172,-2.6090,-0.5638,-0.4066,49.27883789,-122.98104281,0.00000000,
22.6870,0.0519,1.0974,-0.1482,1.9034,2.5616,-3.3172,-2.6090,-0.5638,-0.4066,49.27883789,-122.98104281,0.00000000,
22.6880,0.0519,1.0974,-0.1482,1.9034,2.5616,-3.3172,-2.3883,-0.6420,-0.2406,49.27883789,-122.98104281,0.00000000,
22.7070,0.0519,1.0974,-0.1482,2.0518,1.7272,-3.3687,-2.3883,-0.6420,-0.2406,49.27883789,-122.98104281,0.00000000,
22.7440,0.1203,0.7193,0.0697,2.0518,1.7272,-3.3687,-2.3883,-0.6420,-0.2406,49.27883789,-122.98104281,0.00000000,
22.7450,0.1203,0.7193,0.0697,2.0518,1.7272,-3.3687,-2.3362,-1.0542,0.1048,49.27883789,-122.98104281,0.00000000,
22.7660,0.1203,0.7193,0.0697,-0.3970,1.1458,-4.8946,-2.3362,-1.0542,0.1048,49.27883789,-122.98104281,0.00000000,
22.8220,0.1203,0.7193,0.0697,-0.3970,1.1458,-4.8946,-1.3053,-0.0798,0.2668,49.27883789,-122.98104281,0.00000000,
22.8240,0.3740,0.4418,0.2125,-0.3970,1.1458,-4.8946,-1.3053,-0.0798,0.2668,49.27883789,-122.98104281,0.00000000,
22.8400,0.3740,0.4418,0.2125,1.6674,-3.1898,-3.1870,-1.3053,-0.0798,0.2668,49.27883789,-122.98104281,0.00000000,
22.8780,0.0745,0.5431,0.2515,1.6674,-3.1898,-3.1870,-1.3053,-0.0798,0.2668,49.27883789,-122.98104281,0.00000000,
22.8800,0.0745,0.5431,0.2515,1.6674,-3.1898,-3.1870,-0.4016,0.9892,-0.3804,49.27883789,-122.98104281,0.00000000,
22.8980,0.0745,0.5431,0.2515,3.0595,-4.1095,-2.5011,-0.4016,0.9892,-0.3804,49.27883789,-122.98104281,0.00000000,
22.9560,0.0745,0.5431,0.2515,3.0595,-4.1095,-2.5011,0.0302,-0.0131,-0.5314,49.27883789,-122.98104281,0.00000000,
22.9580,-0.4352,0.6905,0.8311,3.0595,-4.1095,-2.5011,0.0302,-0.0131,-0.5314,49.27883789,-122.98104281,0.00000000,
22.9730,-0.4352,0.6905,0.8311,-0.7931,-3.3640,-0.7904,0.0302,-0.0131,-0.5314,49.27883789,-122.98104281,0.00000000,
23.0100,-0.4352,0.6905,0.8311,-0.7931,-3.3640,-0.7904,0.3530,-1.2118,-0.1776,49.27883789,-122.98104281,0.00000000,
23.0120,0.1078,0.8873,0.8767,-0.7931,-3.3640,-0.7904,0.3530,-1.2118,-0.1776,49.27883789,-122.98104281,0.00000000,
23.0300,0.1078,0.8873,0.8767,-4.7447,-0.7832,5.2669,0.3530,-1.2118,-0.1776,49.27883789,-122.98104281,0.00000000,
23.0870,0.1078,0.8873,0.8767,-4.7447,-0.7832,5.2669,-0.2148,-0.2843,-0.0165,49.27883789,-122.98104281,0.00000000,
23.0880,0.3855,1.3706,0.5222,-4.7447,-0.7832,5.2669,-0.2148,-0.2843,-0.0165,49.27883789,-122.98104281,0.00000000,
23.1070,0.3855,1.3706,0.5222,3.8867,1.5836,3.2279,-0.2148,-0.2843,-0.0165,49.27883789,-122.98104281,0.00000000,
23.1540,0.3855,1.3706,0.5222,3.8867,1.5836,3.2279,1.1328,2.0209,0.0243,49.27883789,-122.98104281,0.00000000,
23.1550,0.4682,0.6463,0.1523,3.8867,1.5836,3.2279,1.1328,2.0209,0.0243,49.27883789,-122.98104281,0.00000000,
23.1720,0.4682,0.6463,0.1523,5.0630,-0.9235,-0.3065,1.1328,2.0209,0.0243,49.27883789,-122.98104281,0.00000000,
23.2120,0.4682,0.6463,0.1523,5.0630,-0.9235,-0.3065,1.5761,0.5819,0.0559,49.27883789,-122.98104281,0.00000000,
23.2130,-0.4205,1.2072,-0.3116,5.0630,-0.9235,-0.3065,1.5761,0.5819,0.0559,49.27883789,-122.98104281,0.00000000,
23.2300,-0.4205,1.2072,-0.3116,-0.3034,2.4847,-3.2073,1.5761,0.5819,0.0559,49.27883789,-122.98104281,0.00000000,
23.2870,-0.4205,1.2072,-0.3116,-0.3034,2.4847,-3.2073,2.0381,0.8646,0.2874,49.27883789,-122.98104281,0.00000000,
23.2890,0.3542,0.8638,0.2947,-0.3034,2.4847,-3.2073,2.0381,0.8646,0.2874,49.27883789,-122.98104281,0.00000000,
23.3070,0.3542,0.8638,0.2947,-0.1918,-0.9741,-0.5546,2.0381,0.8646,0.2874,49.27883789,-122.98104281,0.00000000,
23.3440,0.3542,0.8638,0.2947,-0.1918,-0.9741,-0.5546,1.9838,0.9206,-0.0017,49.27883789,-122.98104281,0.00000000,
23.3460,-0.3866,0.9263,-0.1602,-0.1918,-0.9741,-0.5546,1.9838,0.9206,-0.0017,49.27883789,-122.98104281,0.00000000,
23.3650,-0.3866,0.9263,-0.1602,1.6068,-0.1696,0.9619,1.9838,0.9206,-0.0017,49.27883789,-122.98104281,0.00000000,
23.4220,-0.1616,0.9653,-0.0376,1.6068,-0.1696,0.9619,1.9838,0.9206,-0.0017,49.27883789,-122.98104281,0.00000000,
23.4240,-0.1616,0.9653,-0.0376,1.6068,-0.1696,0.9619,1.4481,-0.1442,0.3715,49.27883789,-122.98104281,0.00000000,
23.4390,-0.1616,0.9653,-0.0376,-4.0632,-1.5539,-0.1838,1.4481,-0.1442,0.3715,49.27883789,-122.98104281,0.00000000,
23.4770,0.1314,1.0003,0.0943,-4.0632,-1.5539,-0.1838,1.4481,-0.1442,0.3715,49.27883789,-122.98104281,0.00000000,
23.4780,0.1314,1.0003,0.0943,-4.0632,-1.5539,-0.1838,0.9654,0.0345,0.0846,49.27883789,-122.98104281,0.00000000,
23.4970,0.1314,1.0003,0.0943,-0.6044,0.5144,1.2241,0.9654,0.0345,0.0846,49.27883789,-122.98104281,0.00000000,
23.5550,0.1314,1.0003,0.0943,-0.6044,0.5144,1.2241,0.7566,1.1264,0.1978,49.27883789,-122.98104281,0.00000000,
23.5570,0.0780,0.9396,-0.0882,-0.6044,0.5144,1.2241,0.7566,1.1264,0.1978,49.27883789,-122.98104281,0.00000000,
23.5730,0.0780,0.9396,-0.0882,1.3869,-0.2348,2.7650,0.7566,1.1264,0.1978,49.27883789,-122.98104281,0.00000000,
23.6110,0.0780,0.9396,-0.0882,1.3869,-0.2348,2.7650,0.7261,1.0269,0.3050,49.27883789,-122.98104281,0.00000000,
23.6130,-0.1328,0.9919,-0.1655,1.3869,-0.2348,2.7650,0.7261,1.0269,0.3050,49.27883789,-122.98104281,0.00000000,
23.6300,-0.1328,0.9919,-0.1655,-0.9479,-0.1144,1.2624,0.7261,1.0269,0.3050,49.27883789,-122.98104281,0.00000000,
23.6880,-0.1328,0.9919,-0.1655,-0.9479,-0.1144,1.2624,0.8596,0.4293,0.1950,49.27883789,-122.98104281,0.00000000,
23.6900,0.0180,1.1509,-0.0706,-0.9479,-0.1144,1.2624,0.8596,0.4293,0.1950,49.27883789,-122.98104281,0.00000000,
23.7070,0.0180,1.1509,-0.0706,-1.5564,0.6344,0.9533,0.8596,0.4293,0.1950,49.27883789,-122.98104281,0.00000000,
23.7440,0.0180,1.1509,-0.0706,-1.5564,0.6344,0.9533,0.3741,1.0543,0.2004,49.27883789,-122.98104281,0.00000000,
23.7450,-0.0256,1.4763,-0.0571,-1.5564,0.6344,0.9533,0.3741,1.0543,0.2004,49.27883789,-122.98104281,0.00000000,
23.7630,-0.0256,1.4763,-0.0571,-1.1508,2.6251,3.0515,0.3741,1.0543,0.2004,49.27883789,-122.98104281,0.00000000,
23.8210,-0.1487,1.3815,-0.1219,-1.1508,2.6251,3.0515,0.3741,1.0543,0.2004,49.27883789,-122.98104281,0.00000000,
