
time,gFx,gFy,gFz,ax,ay,az,wx,wy,wz,Latitude,Longitude,Speed (m/s),
0.0770,-0.0995,0.0378,1.0507,0.0000,0.0000,0.0000,0.0000,0.0000,0.0000,0.00000000,0.00000000,0.00000000,
0.0960,-0.0995,0.0378,1.0507,0.0000,0.0000,0.0000,0.3779,0.8358,1.8363,49.27858332,-122.98370947,0.00000000,
0.1350,-0.0988,0.0672,1.0741,0.0000,0.0000,0.0000,0.3779,0.8358,1.8363,49.27858332,-122.98370947,0.00000000,
0.1530,-0.0988,0.0672,1.0741,0.0000,0.0000,0.0000,0.4207,1.4008,2.1566,49.27858332,-122.98370947,0.00000000,
0.1740,-0.0988,0.0672,1.0741,0.0000,0.0000,0.0000,0.4207,1.4008,2.1566,49.27858332,-122.98370947,0.00000000,
0.2110,-0.1436,0.1221,0.9362,0.0000,0.0000,0.0000,0.4207,1.4008,2.1566,49.27858332,-122.98370947,0.00000000,
0.2300,-0.1436,0.1221,0.9362,0.0000,0.0000,0.0000,0.2603,1.2357,2.3779,49.27858332,-122.98370947,0.00000000,
0.2500,-0.1436,0.1221,0.9362,0.2957,-0.0576,-0.2848,0.2603,1.2357,2.3779,49.27858332,-122.98370947,0.00000000,
0.2700,-0.0810,0.1578,0.9904,0.2957,-0.0576,-0.2848,0.2603,1.2357,2.3779,49.27858332,-122.98370947,0.00000000,
0.2870,-0.0810,0.1578,0.9904,0.2957,-0.0576,-0.2848,-0.2460,1.1339,2.4566,49.27858332,-122.98370947,0.00000000,
0.3060,-0.0810,0.1578,0.9904,0.3162,0.3199,-0.3809,-0.2460,1.1339,2.4566,49.27858332,-122.98370947,0.00000000,
0.3440,-0.0745,0.1204,1.0954,0.3162,0.3199,-0.3809,-0.2460,1.1339,2.4566,49.27858332,-122.98370947,0.00000000,
0.3630,-0.0745,0.1204,1.0954,0.3162,0.3199,-0.3809,-0.4729,0.8198,2.2376,49.27858332,-122.98370947,0.00000000,
0.3830,-0.0745,0.1204,1.0954,1.3459,0.4304,0.1222,-0.4729,0.8198,2.2376,49.27858332,-122.98370947,0.00000000,
0.4020,-0.0373,0.1809,1.1689,1.3459,0.4304,0.1222,-0.4729,0.8198,2.2376,49.27858332,-122.98370947,0.00000000,
0.4200,-0.0373,0.1809,1.1689,1.3459,0.4304,0.1222,-0.2651,1.3753,2.1433,49.27858332,-122.98370947,0.00000000,
0.4400,-0.0373,0.1809,1.1689,1.0000,-0.3486,1.5034,-0.2651,1.3753,2.1433,49.27858332,-122.98370947,0.00000000,
0.4770,-0.1440,0.1431,0.8339,1.0000,-0.3486,1.5034,-0.2651,1.3753,2.1433,49.27858332,-122.98370947,0.00000000,
0.4970,-0.1440,0.1431,0.8339,1.0000,-0.3486,1.5034,-0.4307,0.9109,1.8562,49.27858332,-122.98370947,0.00000000,
0.5170,-0.1440,0.1431,0.8339,1.4173,0.8205,-0.3427,-0.4307,0.9109,1.8562,49.27858332,-122.98370947,0.00000000,
0.5360,-0.1846,0.1722,0.7896,1.4173,0.8205,-0.3427,-0.4307,0.9109,1.8562,49.27858332,-122.98370947,0.00000000,
0.5540,-0.1846,0.1722,0.7896,1.4173,0.8205,-0.3427,-0.7794,1.0620,1.8908,49.27858332,-122.98370947,0.00000000,
0.5730,-0.1846,0.1722,0.7896,1.3637,0.1572,-1.5800,-0.7794,1.0620,1.8908,49.27858332,-122.98370947,0.00000000,
0.6110,-0.4074,0.2178,0.5941,1.3637,0.1572,-1.5800,-0.7794,1.0620,1.8908,49.27858332,-122.98370947,0.00000000,
0.6300,-0.4074,0.2178,0.5941,1.3637,0.1572,-1.5800,-1.4423,1.2634,2.1987,49.27858332,-122.98370947,0.00000000,
0.6510,-0.4074,0.2178,0.5941,0.3812,1.4260,-2.1402,-1.4423,1.2634,2.1987,49.27858332,-122.98370947,0.00000000,
0.6690,-0.6809,0.0797,0.8687,0.3812,1.4260,-2.1402,-1.4423,1.2634,2.1987,49.27858332,-122.98370947,0.00000000,
0.6880,-0.6809,0.0797,0.8687,0.3812,1.4260,-2.1402,-1.7660,3.9982,3.9623,49.27858332,-122.98370947,0.00000000,
0.7080,-0.6809,0.0797,0.8687,-0.1251,0.5240,-1.2370,-1.7660,3.9982,3.9623,49.27858332,-122.98370947,0.00000000,
0.7440,-0.5419,0.2658,0.8028,-0.1251,0.5240,-1.2370,-1.7660,3.9982,3.9623,49.27858332,-122.98370947,0.00000000,
0.7630,-0.5419,0.2658,0.8028,-0.1251,0.5240,-1.2370,-0.9334,3.3658,3.4112,49.27858332,-122.98370947,0.00000000,
0.7830,-0.5419,0.2658,0.8028,1.3543,-1.1938,2.6202,-0.9334,3.3658,3.4112,49.27858332,-122.98370947,0.00000000,
0.8020,-0.8782,0.1991,0.7749,1.3543,-1.1938,2.6202,-0.9334,3.3658,3.4112,49.27858332,-122.98370947,0.00000000,
0.8200,-0.8782,0.1991,0.7749,1.3543,-1.1938,2.6202,-0.3722,2.5923,2.1020,49.27858332,-122.98370947,0.00000000,
0.8400,-0.8782,0.1991,0.7749,-0.0926,0.0543,1.9556,-0.3722,2.5923,2.1020,49.27858332,-122.98370947,0.00000000,
0.8780,-0.8002,0.1767,0.7735,-0.0926,0.0543,1.9556,-0.3722,2.5923,2.1020,49.27858332,-122.98370947,0.00000000,
0.9030,-0.8002,0.1767,0.7735,-0.0926,0.0543,1.9556,0.7460,2.1481,0.3783,49.27858332,-122.98370947,0.00000000,
0.9170,-0.8002,0.1767,0.7735,0.1272,-1.0862,2.9176,0.7460,2.1481,0.3783,49.27858319,-122.98370953,0.00000000,
0.9350,-0.9870,0.1617,0.5294,0.1272,-1.0862,2.9176,0.7460,2.1481,0.3783,49.27858319,-122.98370953,0.00000000,
0.9530,-0.9870,0.1617,0.5294,0.1272,-1.0862,2.9176,0.1604,2.3544,0.1823,49.27858319,-122.98370953,0.00000000,
0.9740,-0.9870,0.1617,0.5294,-0.1889,-1.7433,2.7141,0.1604,2.3544,0.1823,49.27858319,-122.98370953,0.00000000,
1.0100,-0.8099,0.0230,0.6687,-0.1889,-1.7433,2.7141,0.1604,2.3544,0.1823,49.27858319,-122.98370953,0.00000000,
1.0310,-0.8099,0.0230,0.6687,-0.1889,-1.7433,2.7141,-0.7614,0.7903,-0.0451,49.27858319,-122.98370953,0.00000000,
1.0510,-0.8099,0.0230,0.6687,-0.7029,-1.0064,1.6878,-0.7614,0.7903,-0.0451,49.27858319,-122.98370953,0.00000000,
1.0710,-0.7685,-0.0911,0.6465,-0.7029,-1.0064,1.6878,-0.7614,0.7903,-0.0451,49.27858319,-122.98370953,0.00000000,
1.0870,-0.7685,-0.0911,0.6465,-0.7029,-1.0064,1.6878,-1.1639,0.8674,0.6403,49.27858319,-122.98370953,0.00000000,
1.1070,-0.7685,-0.0911,0.6465,1.3704,-3.2381,2.5555,-1.1639,0.8674,0.6403,49.27858319,-122.98370953,0.00000000,
1.1440,-0.6866,0.1187,0.6525,1.3704,-3.2381,2.5555,-1.1639,0.8674,0.6403,49.27858319,-122.98370953,0.00000000,
1.1640,-0.6866,0.1187,0.6525,1.3704,-3.2381,2.5555,-1.3583,0.0810,0.1071,49.27858319,-122.98370953,0.00000000,
1.1830,-0.6866,0.1187,0.6525,1.5494,-1.9850,2.2154,-1.3583,0.0810,0.1071,49.27858319,-122.98370953,0.00000000,
1.2010,-0.6200,0.5995,0.4750,1.5494,-1.9850,2.2154,-1.3583,0.0810,0.1071,49.27858319,-122.98370953,0.00000000,
1.2190,-0.6200,0.5995,0.4750,1.5494,-1.9850,2.2154,-0.4256,-1.8286,-0.9265,49.27858319,-122.98370953,0.00000000,
1.2400,-0.6200,0.5995,0.4750,2.1191,2.5719,0.1826,-0.4256,-1.8286,-0.9265,49.27858319,-122.98370953,0.00000000,
1.2770,-1.1471,0.2625,0.6766,2.1191,2.5719,0.1826,-0.4256,-1.8286,-0.9265,49.27858319,-122.98370953,0.00000000,
1.2960,-1.1471,0.2625,0.6766,2.1191,2.5719,0.1826,0.0812,0.7573,1.2227,49.27858319,-122.98370953,0.00000000,
1.3180,-1.1471,0.2625,0.6766,-1.1613,1.4866,1.6102,0.0812,0.7573,1.2227,49.27858319,-122.98370953,0.00000000,
1.3330,-0.9104,0.5196,0.4110,-1.1613,1.4866,1.6102,0.0812,0.7573,1.2227,49.27858319,-122.98370953,0.00000000,
1.3530,-0.9104,0.5196,0.4110,-1.1613,1.4866,1.6102,-0.1778,0.0832,-0.0952,49.27858319,-122.98370953,0.00000000,
1.3720,-0.9104,0.5196,0.4110,-0.8383,2.5248,-0.6296,-0.1778,0.0832,-0.0952,49.27858319,-122.98370953,0.00000000,
1.4100,-1.2539,0.1928,0.4144,-0.8383,2.5248,-0.6296,-0.1778,0.0832,-0.0952,49.27858319,-122.98370953,0.00000000,
1.4290,-1.2539,0.1928,0.4144,-0.8383,2.5248,-0.6296,1.1315,0.8781,-0.7672,49.27858319,-122.98370953,0.00000000,
1.4480,-1.2539,0.1928,0.4144,-2.5258,0.2576,1.1848,1.1315,0.8781,-0.7672,49.27858319,-122.98370953,0.00000000,
1.4670,-0.8844,0.1712,0.2172,-2.5258,0.2576,1.1848,1.1315,0.8781,-0.7672,49.27858319,-122.98370953,0.00000000,
1.4860,-0.8844,0.1712,0.2172,-2.5258,0.2576,1.1848,1.6551,0.6967,-1.3164,49.27858319,-122.98370953,0.00000000,
1.5060,-0.8844,0.1712,0.2172,-0.8892,0.0729,-0.7289,1.6551,0.6967,-1.3164,49.27858319,-122.98370953,0.00000000,
1.5430,-0.6549,0.3045,0.3395,-0.8892,0.0729,-0.7289,1.6551,0.6967,-1.3164,49.27858319,-122.98370953,0.00000000,
1.5620,-0.6549,0.3045,0.3395,-0.8892,0.0729,-0.7289,0.1597,0.3796,0.2331,49.27858319,-122.98370953,0.00000000,
1.5820,-0.6549,0.3045,0.3395,1.8268,-0.5884,-0.2147,0.1597,0.3796,0.2331,49.27858319,-122.98370953,0.00000000,
1.6010,-1.0233,0.2673,0.1514,1.8268,-0.5884,-0.2147,0.1597,0.3796,0.2331,49.27858319,-122.98370953,0.00000000,
1.6220,-1.0233,0.2673,0.1514,1.8268,-0.5884,-0.2147,-0.2981,0.2637,0.3971,49.27858319,-122.98370953,0.00000000,
1.6390,-1.0233,0.2673,0.1514,0.9961,1.4166,-0.2541,-0.2981,0.2637,0.3971,49.27858319,-122.98370953,0.00000000,
1.6770,-0.8843,0.1481,0.0912,0.9961,1.4166,-0.2541,-0.2981,0.2637,0.3971,49.27858319,-122.98370953,0.00000000,
1.6990,-0.8843,0.1481,0.0912,0.9961,1.4166,-0.2541,0.1796,-0.2479,0.0142,49.27858319,-122.98370953,0.00000000,
1.7150,-0.8843,0.1481,0.0912,-0.2716,-1.3579,-2.4928,0.1796,-0.2479,0.0142,49.27858319,-122.98370953,0.00000000,
1.7340,-0.8212,0.2558,0.4315,-0.2716,-1.3579,-2.4928,0.1796,-0.2479,0.0142,49.27858319,-122.98370953,0.00000000,
1.7520,-0.8212,0.2558,0.4315,-0.2716,-1.3579,-2.4928,0.2748,-0.3151,0.3614,49.27858319,-122.98370953,0.00000000,
1.7730,-0.8212,0.2558,0.4315,0.7821,0.0601,-0.6325,0.2748,-0.3151,0.3614,49.27858319,-122.98370953,0.00000000,
1.8090,-0.9064,0.3294,0.1122,0.7821,0.0601,-0.6325,0.2748,-0.3151,0.3614,49.27858319,-122.98370953,0.00000000,
1.8300,-0.9064,0.3294,0.1122,0.7821,0.0601,-0.6325,0.6313,-0.3690,0.1212,49.27858319,-122.98370953,0.00000000,
1.8480,-0.9064,0.3294,0.1122,0.3046,-0.2369,-0.2477,0.6313,-0.3690,0.1212,49.27858319,-122.98370953,0.00000000,
1.8670,-0.9693,0.2400,0.2279,0.3046,-0.2369,-0.2477,0.6313,-0.3690,0.1212,49.27858319,-122.98370953,0.00000000,
1.8870,-0.9693,0.2400,0.2279,0.3046,-0.2369,-0.2477,0.2205,-0.0262,0.3345,49.27858319,-122.98370953,0.00000000,
1.9060,-0.9693,0.2400,0.2279,-0.5256,0.7162,-2.3063,0.2205,-0.0262,0.3345,49.27858319,-122.98370953,0.00000000,
1.9440,-0.9607,0.4912,0.0992,-0.5256,0.7162,-2.3063,0.2205,-0.0262,0.3345,49.27858319,-122.98370953,0.00000000,
1.9630,-0.9607,0.4912,0.0992,-0.5256,0.7162,-2.3063,0.2880,-0.6631,0.9296,49.27858319,-122.98370953,0.00000000,
1.9810,-0.9607,0.4912,0.0992,-1.2741,-1.4348,-1.5765,0.2880,-0.6631,0.9296,49.27858319,-122.98370953,0.00000000,
2.0000,-0.7138,0.3552,0.3973,-1.2741,-1.4348,-1.5765,0.2880,-0.6631,0.9296,49.27858319,-122.98370953,0.00000000,
2.0200,-0.7138,0.3552,0.3973,-1.2741,-1.4348,-1.5765,0.4795,-0.1672,1.7981,49.27858319,-122.98370953,0.00000000,
2.0480,-0.7138,0.3552,0.3973,-0.0951,-0.9439,-0.3994,0.4795,-0.1672,1.7981,49.27858319,-122.98370953,0.00000000,
2.0700,-0.6243,0.8401,0.2001,-0.0951,-0.9439,-0.3994,0.4795,-0.1672,1.7981,49.27858319,-122.98370953,0.00000000,
2.0860,-0.6243,0.8401,0.2001,-0.0951,-0.9439,-0.3994,0.8127,-0.5486,1.3838,49.27858319,-122.98370953,0.00000000,
2.1060,-0.6243,0.8401,0.2001,1.1228,0.3217,-0.4520,0.8127,-0.5486,1.3838,49.27858319,-122.98370953,0.00000000,
2.1440,-0.6848,0.8571,0.2124,1.1228,0.3217,-0.4520,0.8127,-0.5486,1.3838,49.27858319,-122.98370953,0.00000000,
2.1620,-0.6848,0.8571,0.2124,1.1228,0.3217,-0.4520,0.0308,0.3311,0.6014,49.27858319,-122.98370953,0.00000000,
2.1810,-0.6848,0.8571,0.2124,0.1226,2.9807,-1.0588,0.0308,0.3311,0.6014,49.27858319,-122.98370953,0.00000000,
2.2010,-0.7692,0.6543,0.1567,0.1226,2.9807,-1.0588,0.0308,0.3311,0.6014,49.27858319,-122.98370953,0.00000000,
2.2190,-0.7692,0.6543,0.1567,0.1226,2.9807,-1.0588,-0.9267,0.4112,0.8644,49.27858319,-122.98370953,0.00000000,
2.2380,-0.7692,0.6543,0.1567,0.2458,0.5925,-1.3909,-0.9267,0.4112,0.8644,49.27858319,-122.98370953,0.00000000,
2.2760,-0.5283,0.7113,0.3308,0.2458,0.5925,-1.3909,-0.9267,0.4112,0.8644,49.27858319,-122.98370953,0.00000000,
2.2960,-0.5283,0.7113,0.3308,0.2458,0.5925,-1.3909,-1.7463,-0.0197,1.0651,49.27858319,-122.98370953,0.00000000,
2.3180,-0.5283,0.7113,0.3308,-1.3215,0.1619,-2.2385,-1.7463,-0.0197,1.0651,49.27858319,-122.98370953,0.00000000,
2.3330,-0.7347,0.6626,0.6757,-1.3215,0.1619,-2.2385,-1.7463,-0.0197,1.0651,49.27858319,-122.98370953,0.00000000,
2.3540,-0.7347,0.6626,0.6757,-1.3215,0.1619,-2.2385,-0.8559,0.1900,0.1970,49.27858319,-122.98370953,0.00000000,
2.3710,-0.7347,0.6626,0.6757,1.7678,0.6517,1.1090,-0.8559,0.1900,0.1970,49.27858319,-122.98370953,0.00000000,
2.4090,-0.4232,0.5200,0.6047,1.7678,0.6517,1.1090,-0.8559,0.1900,0.1970,49.27858319,-122.98370953,0.00000000,
2.4280,-0.4232,0.5200,0.6047,1.7678,0.6517,1.1090,0.6264,0.0483,0.5537,49.27858319,-122.98370953,0.00000000,
2.4470,-0.4232,0.5200,0.6047,0.7596,-0.3344,2.9667,0.6264,0.0483,0.5537,49.27858319,-122.98370953,0.00000000,
2.4660,-0.5408,0.6220,0.2851,0.7596,-0.3344,2.9667,0.6264,0.0483,0.5537,49.27858319,-122.98370953,0.00000000,
2.4860,-0.5408,0.6220,0.2851,0.7596,-0.3344,2.9667,-0.6082,1.0569,1.3302,49.27858319,-122.98370953,0.00000000,
2.5040,-0.5408,0.6220,0.2851,0.7162,-1.3543,-1.9252,-0.6082,1.0569,1.3302,49.27858319,-122.98370953,0.00000000,
2.5430,-0.6099,0.6657,0.5400,0.7162,-1.3543,-1.9252,-0.6082,1.0569,1.3302,49.27858319,-122.98370953,0.00000000,
2.5610,-0.6099,0.6657,0.5400,0.7162,-1.3543,-1.9252,0.4921,0.6206,1.0951,49.27858319,-122.98370953,0.00000000,
2.5800,-0.6099,0.6657,0.5400,-0.8835,-1.4213,3.5136,0.4921,0.6206,1.0951,49.27858319,-122.98370953,0.00000000,
2.5990,-0.5781,0.8650,0.5718,-0.8835,-1.4213,3.5136,0.4921,0.6206,1.0951,49.27858319,-122.98370953,0.00000000,
2.6180,-0.5781,0.8650,0.5718,-0.8835,-1.4213,3.5136,1.0413,0.2377,-0.0453,49.27858319,-122.98370953,0.00000000,
2.6380,-0.5781,0.8650,0.5718,0.2638,-0.1185,2.4403,1.0413,0.2377,-0.0453,49.27858319,-122.98370953,0.00000000,
2.6760,-0.5162,0.9186,0.3214,0.2638,-0.1185,2.4403,1.0413,0.2377,-0.0453,49.27858319,-122.98370953,0.00000000,
2.6950,-0.5162,0.9186,0.3214,0.2638,-0.1185,2.4403,0.7858,0.5609,0.4493,49.27858319,-122.98370953,0.00000000,
2.7140,-0.5162,0.9186,0.3214,-0.4494,1.1529,1.3781,0.7858,0.5609,0.4493,49.27858319,-122.98370953,0.00000000,
2.7320,-0.1893,0.7474,0.0379,-0.4494,1.1529,1.3781,0.7858,0.5609,0.4493,49.27858319,-122.98370953,0.00000000,
2.7520,-0.1893,0.7474,0.0379,-0.4494,1.1529,1.3781,0.3680,0.9014,0.4577,49.27858319,-122.98370953,0.00000000,
2.7710,-0.1893,0.7474,0.0379,2.8971,0.2524,-0.1114,0.3680,0.9014,0.4577,49.27858319,-122.98370953,0.00000000,
2.8090,-0.6656,0.7213,0.0616,2.8971,0.2524,-0.1114,0.3680,0.9014,0.4577,49.27858319,-122.98370953,0.00000000,
2.8290,-0.6656,0.7213,0.0616,2.8971,0.2524,-0.1114,0.2236,0.2712,-0.1689,49.27858319,-122.98370953,0.00000000,
2.8470,-0.6656,0.7213,0.0616,0.5157,-1.0220,-1.4060,0.2236,0.2712,-0.1689,49.27858319,-122.98370953,0.00000000,
2.8660,-0.6427,0.8291,-0.0896,0.5157,-1.0220,-1.4060,0.2236,0.2712,-0.1689,49.27858319,-122.98370953,0.00000000,
2.8850,-0.6427,0.8291,-0.0896,0.5157,-1.0220,-1.4060,-0.1488,0.7273,0.3895,49.27858319,-122.98370953,0.00000000,
2.9040,-0.6427,0.8291,-0.0896,-1.4043,-1.4551,-1.2556,-0.1488,0.7273,0.3895,49.27858319,-122.98370953,0.00000000,
2.9430,-0.5150,1.3093,0.0827,-1.4043,-1.4551,-1.2556,-0.1488,0.7273,0.3895,49.27858319,-122.98370953,0.00000000,
2.9620,-0.5150,1.3093,0.0827,-1.4043,-1.4551,-1.2556,-0.5372,2.1490,0.2265,49.27858319,-122.98370953,0.00000000,
2.9800,-0.5150,1.3093,0.0827,0.2469,2.4780,-0.3484,-0.5372,2.1490,0.2265,49.27858319,-122.98370953,0.00000000,
2.9990,-0.4130,1.1103,0.0288,0.2469,2.4780,-0.3484,-0.5372,2.1490,0.2265,49.27858319,-122.98370953,0.00000000,
3.0190,-0.4130,1.1103,0.0288,0.2469,2.4780,-0.3484,-0.3389,2.3501,-0.0711,49.27858319,-122.98370953,0.00000000,
3.0470,-0.4130,1.1103,0.0288,0.0675,5.9059,1.6448,-0.3389,2.3501,-0.0711,49.27858319,-122.98370953,0.00000000,
3.0690,-0.4031,0.3444,-0.1023,0.0675,5.9059,1.6448,-0.3389,2.3501,-0.0711,49.27858319,-122.98370953,0.00000000,
3.0860,-0.4031,0.3444,-0.1023,0.0675,5.9059,1.6448,-1.1051,2.6070,-0.0107,49.27858319,-122.98370953,0.00000000,
3.1050,-0.4031,0.3444,-0.1023,2.4236,-2.5984,-2.9807,-1.1051,2.6070,-0.0107,49.27858319,-122.98370953,0.00000000,
3.1430,-0.4401,0.3507,-0.1103,2.4236,-2.5984,-2.9807,-1.1051,2.6070,-0.0107,49.27858319,-122.98370953,0.00000000,
3.1620,-0.4401,0.3507,-0.1103,2.4236,-2.5984,-2.9807,-0.5797,-1.2907,-0.4521,49.27858319,-122.98370953,0.00000000,
3.1810,-0.4401,0.3507,-0.1103,1.2433,-6.1074,-1.0596,-0.5797,-1.2907,-0.4521,49.27858319,-122.98370953,0.00000000,
3.2000,-0.8649,1.0782,0.0034,1.2433,-6.1074,-1.0596,-0.5797,-1.2907,-0.4521,49.27858319,-122.98370953,0.00000000,
3.2190,-0.8649,1.0782,0.0034,1.2433,-6.1074,-1.0596,-1.1051,0.1948,-0.3055,49.27858319,-122.98370953,0.00000000,
3.2370,-0.8649,1.0782,0.0034,-0.5860,-0.5443,-0.8989,-1.1051,0.1948,-0.3055,49.27858319,-122.98370953,0.00000000,
3.2760,-0.5997,1.1161,0.1864,-0.5860,-0.5443,-0.8989,-1.1051,0.1948,-0.3055,49.27858319,-122.98370953,0.00000000,
3.2950,-0.5997,1.1161,0.1864,-0.5860,-0.5443,-0.8989,-1.4746,1.3568,0.0156,49.27858319,-122.98370953,0.00000000,
3.3140,-0.5997,1.1161,0.1864,-1.4366,5.2673,-0.3321,-1.4746,1.3568,0.0156,49.27858319,-122.98370953,0.00000000,
3.3330,-0.7542,0.4426,0.2256,-1.4366,5.2673,-0.3321,-1.4746,1.3568,0.0156,49.27858319,-122.98370953,0.00000000,
3.3520,-0.7542,0.4426,0.2256,-1.4366,5.2673,-0.3321,-0.7189,0.2485,0.5729,49.27858319,-122.98370953,0.00000000,
3.3710,-0.7542,0.4426,0.2256,-1.3585,-1.9103,-0.4895,-0.7189,0.2485,0.5729,49.27858319,-122.98370953,0.00000000,
3.4090,-0.4473,0.8753,0.1866,-1.3585,-1.9103,-0.4895,-0.7189,0.2485,0.5729,49.27858319,-122.98370953,0.00000000,
3.4290,-0.4473,0.8753,0.1866,-1.3585,-1.9103,-0.4895,0.0662,-0.1039,0.9670,49.27858319,-122.98370953,0.00000000,
3.4480,-0.4473,0.8753,0.1866,-0.8060,-1.8298,0.8040,0.0662,-0.1039,0.9670,49.27858319,-122.98370953,0.00000000,
3.4660,-0.6328,1.2597,0.0375,-0.8060,-1.8298,0.8040,0.0662,-0.1039,0.9670,49.27858319,-122.98370953,0.00000000,
3.4850,-0.6328,1.2597,0.0375,-0.8060,-1.8298,0.8040,-0.9707,0.9857,1.3929,49.27858319,-122.98370953,0.00000000,
3.5050,-0.6328,1.2597,0.0375,-1.3471,2.7980,-1.1930,-0.9707,0.9857,1.3929,49.27858319,-122.98370953,0.00000000,
3.5430,-0.5315,1.0501,0.0956,-1.3471,2.7980,-1.1930,-0.9707,0.9857,1.3929,49.27858319,-122.98370953,0.00000000,
3.5620,-0.5315,1.0501,0.0956,-1.3471,2.7980,-1.1930,-0.7663,0.7084,1.3777,49.27858319,-122.98370953,0.00000000,
3.5810,-0.5315,1.0501,0.0956,-1.9085,1.8855,-0.2021,-0.7663,0.7084,1.3777,49.27858319,-122.98370953,0.00000000,
3.5990,-0.0034,0.7687,0.1511,-1.9085,1.8855,-0.2021,-0.7663,0.7084,1.3777,49.27858319,-122.98370953,0.00000000,
3.6180,-0.0034,0.7687,0.1511,-1.9085,1.8855,-0.2021,-2.1025,1.4884,1.3747,49.27858319,-122.98370953,0.00000000,
3.6380,-0.0034,0.7687,0.1511,0.9742,-0.9290,-4.0265,-2.1025,1.4884,1.3747,49.27858319,-122.98370953,0.00000000,
3.6770,-0.3314,0.9349,0.4039,0.9742,-0.9290,-4.0265,-2.1025,1.4884,1.3747,49.27858319,-122.98370953,0.00000000,
3.6950,-0.3314,0.9349,0.4039,0.9742,-0.9290,-4.0265,-1.1102,2.0387,1.5421,49.27858319,-122.98370953,0.00000000,
3.7130,-0.3314,0.9349,0.4039,0.8948,0.7327,1.5769,-1.1102,2.0387,1.5421,49.27858319,-122.98370953,0.00000000,
3.7330,-0.3429,0.8934,0.2660,0.8948,0.7327,1.5769,-1.1102,2.0387,1.5421,49.27858319,-122.98370953,0.00000000,
3.7520,-0.3429,0.8934,0.2660,0.8948,0.7327,1.5769,-1.2316,2.0624,1.5241,49.27858319,-122.98370953,0.00000000,
3.7700,-0.3429,0.8934,0.2660,-1.0602,0.1335,-2.5201,-1.2316,2.0624,1.5241,49.27858319,-122.98370953,0.00000000,
3.8090,-0.2924,0.6087,0.4903,-1.0602,0.1335,-2.5201,-1.2316,2.0624,1.5241,49.27858319,-122.98370953,0.00000000,
3.8280,-0.2924,0.6087,0.4903,-1.0602,0.1335,-2.5201,-0.0781,0.4625,1.0316,49.27858319,-122.98370953,0.00000000,
3.8480,-0.2924,0.6087,0.4903,-0.8497,-1.7785,2.0049,-0.0781,0.4625,1.0316,49.27858319,-122.98370953,0.00000000,
3.8670,-0.3532,0.8460,0.3461,-0.8497,-1.7785,2.0049,-0.0781,0.4625,1.0316,49.27858319,-122.98370953,0.00000000,
3.8860,-0.3532,0.8460,0.3461,-0.8497,-1.7785,2.0049,0.6156,0.4660,1.3492,49.27858319,-122.98370953,0.00000000,
3.9030,-0.3532,0.8460,0.3461,-3.3641,-2.5493,1.0886,0.6156,0.4660,1.3492,49.27858319,-122.98370953,0.00000000,
3.9420,-0.1662,0.9410,0.5597,-3.3641,-2.5493,1.0886,0.6156,0.4660,1.3492,49.27858319,-122.98370953,0.00000000,
3.9610,-0.1662,0.9410,0.5597,-3.3641,-2.5493,1.0886,0.8909,0.6232,2.1374,49.27858943,-122.98368737,0.60000002,
3.9800,-0.1662,0.9410,0.5597,-3.8579,-0.9554,1.5176,0.8909,0.6232,2.1374,49.27858943,-122.98368737,0.60000002,
3.9990,0.3946,0.6325,-0.0128,-3.8579,-0.9554,1.5176,0.8909,0.6232,2.1374,49.27858943,-122.98368737,0.60000002,
4.0180,0.3946,0.6325,-0.0128,-3.8579,-0.9554,1.5176,0.2084,0.7707,1.1042,49.27858943,-122.98368737,0.60000002,
4.0470,0.3946,0.6325,-0.0128,3.2705,-1.1760,-0.1687,0.2084,0.7707,1.1042,49.27858943,-122.98368737,0.60000002,
4.0700,-0.0165,1.0203,0.4683,3.2705,-1.1760,-0.1687,0.2084,0.7707,1.1042,49.27858943,-122.98368737,0.60000002,
4.0840,-0.0165,1.0203,0.4683,3.2705,-1.1760,-0.1687,0.6605,1.3095,1.6402,49.27858943,-122.98368737,0.60000002,
4.1050,-0.0165,1.0203,0.4683,-1.2305,-1.5055,0.6286,0.6605,1.3095,1.6402,49.27858943,-122.98368737,0.60000002,
4.1420,0.3623,1.0380,0.2744,-1.2305,-1.5055,0.6286,0.6605,1.3095,1.6402,49.27858943,-122.98368737,0.60000002,
4.1610,0.3623,1.0380,0.2744,-1.2305,-1.5055,0.6286,0.8158,1.1219,0.7277,49.27858943,-122.98368737,0.60000002,
4.1800,0.3623,1.0380,0.2744,0.1570,1.1418,1.1544,0.8158,1.1219,0.7277,49.27858943,-122.98368737,0.60000002,
4.1990,0.2826,0.8359,0.1204,0.1570,1.1418,1.1544,0.8158,1.1219,0.7277,49.27858943,-122.98368737,0.60000002,
4.2200,0.2826,0.8359,0.1204,0.1570,1.1418,1.1544,0.8090,1.0109,-0.2486,49.27858943,-122.98368737,0.60000002,
4.2380,0.2826,0.8359,0.1204,2.6476,-0.4393,1.8008,0.8090,1.0109,-0.2486,49.27858943,-122.98368737,0.60000002,
4.2760,0.0325,1.1880,0.0918,2.6476,-0.4393,1.8008,0.8090,1.0109,-0.2486,49.27858943,-122.98368737,0.60000002,
4.2950,0.0325,1.1880,0.0918,2.6476,-0.4393,1.8008,0.5704,1.2399,0.1210,49.27858943,-122.98368737,0.60000002,
4.3140,0.0325,1.1880,0.0918,-0.7102,-0.7171,-0.9043,0.5704,1.2399,0.1210,49.27858943,-122.98368737,0.60000002,
4.3330,0.1920,1.0752,0.2180,-0.7102,-0.7171,-0.9043,0.5704,1.2399,0.1210,49.27858943,-122.98368737,0.60000002,
4.3520,0.1920,1.0752,0.2180,-0.7102,-0.7171,-0.9043,1.3061,0.9802,-0.2181,49.27858943,-122.98368737,0.60000002,
4.3700,0.1920,1.0752,0.2180,-0.2606,1.6037,1.3567,1.3061,0.9802,-0.2181,49.27858943,-122.98368737,0.60000002,
4.4090,0.0892,1.2101,-0.1893,-0.2606,1.6037,1.3567,1.3061,0.9802,-0.2181,49.27858943,-122.98368737,0.60000002,
4.4280,0.0892,1.2101,-0.1893,-0.2606,1.6037,1.3567,-0.2394,-0.4170,0.1062,49.27858943,-122.98368737,0.60000002,
4.4470,0.0892,1.2101,-0.1893,-0.0225,1.8198,-0.1210,-0.2394,-0.4170,0.1062,49.27858943,-122.98368737,0.60000002,
4.4660,0.3222,1.0134,0.2094,-0.0225,1.8198,-0.1210,-0.2394,-0.4170,0.1062,49.27858943,-122.98368737,0.60000002,
4.4850,0.3222,1.0134,0.2094,-0.0225,1.8198,-0.1210,-0.3457,0.1045,-0.1685,49.27858943,-122.98368737,0.60000002,
4.5030,0.3222,1.0134,0.2094,1.6812,1.9218,-1.1374,-0.3457,0.1045,-0.1685,49.27858943,-122.98368737,0.60000002,
4.5420,-0.0369,0.8721,0.2742,1.6812,1.9218,-1.1374,-0.3457,0.1045,-0.1685,49.27858943,-122.98368737,0.60000002,
4.5620,-0.0369,0.8721,0.2742,1.6812,1.9218,-1.1374,0.0280,0.7232,-0.0071,49.27858943,-122.98368737,0.60000002,
4.5800,-0.0369,0.8721,0.2742,-0.3349,-1.7160,1.9473,0.0280,0.7232,-0.0071,49.27858943,-122.98368737,0.60000002,
4.5990,0.0102,0.9637,0.0109,-0.3349,-1.7160,1.9473,0.0280,0.7232,-0.0071,49.27858943,-122.98368737,0.60000002,
4.6170,0.0102,0.9637,0.0109,-0.3349,-1.7160,1.9473,-0.0703,0.5876,-0.4528,49.27858943,-122.98368737,0.60000002,
4.6370,0.0102,0.9637,0.0109,-1.0665,-1.1620,0.4516,-0.0703,0.5876,-0.4528,49.27858943,-122.98368737,0.60000002,
4.6760,0.1423,1.1749,0.2606,-1.0665,-1.1620,0.4516,-0.0703,0.5876,-0.4528,49.27858943,-122.98368737,0.60000002,
4.6940,0.1423,1.1749,0.2606,-1.0665,-1.1620,0.4516,0.1165,0.7594,-0.4279,49.27858943,-122.98368737,0.60000002,
4.7130,0.1423,1.1749,0.2606,0.7245,1.8506,1.0041,0.1165,0.7594,-0.4279,49.27858943,-122.98368737,0.60000002,
4.7320,0.0518,0.8778,0.3084,0.7245,1.8506,1.0041,0.1165,0.7594,-0.4279,49.27858943,-122.98368737,0.60000002,
4.7500,0.0518,0.8778,0.3084,0.7245,1.8506,1.0041,0.6004,1.2826,-0.3610,49.27858943,-122.98368737,0.60000002,
4.7700,0.0518,0.8778,0.3084,0.5135,-0.8954,2.4116,0.6004,1.2826,-0.3610,49.27858943,-122.98368737,0.60000002,
4.8080,-0.2083,1.1001,-0.0627,0.5135,-0.8954,2.4116,0.6004,1.2826,-0.3610,49.27858943,-122.98368737,0.60000002,
4.8280,-0.2083,1.1001,-0.0627,0.5135,-0.8954,2.4116,0.1563,0.2565,0.0420,49.27858943,-122.98368737,0.60000002,
4.8460,-0.2083,1.1001,-0.0627,-1.2816,1.1130,0.4982,0.1563,0.2565,0.0420,49.27858943,-122.98368737,0.60000002,
4.8660,-0.0521,0.8402,0.1450,-1.2816,1.1130,0.4982,0.1563,0.2565,0.0420,49.27858943,-122.98368737,0.60000002,
4.8840,-0.0521,0.8402,0.1450,-1.2816,1.1130,0.4982,0.0617,0.0691,0.3300,49.27858943,-122.98368737,0.60000002,
4.9030,-0.0521,0.8402,0.1450,-1.6216,-1.1419,-0.5123,0.0617,0.0691,0.3300,49.27858943,-122.98368737,0.60000002,
4.9400,-0.0677,1.0782,-0.0156,-1.6216,-1.1419,-0.5123,0.0617,0.0691,0.3300,49.27858943,-122.98368737,0.60000002,
4.9590,-0.0677,1.0782,-0.0156,-1.6216,-1.1419,-0.5123,-0.3419,-0.1081,1.4471,49.27858943,-122.98368737,0.60000002,
4.9780,-0.0677,1.0782,-0.0156,-3.8081,0.5044,-1.7790,-0.3419,-0.1081,1.4471,49.27858943,-122.98368737,0.60000002,
4.9970,0.2925,1.1137,0.1714,-3.8081,0.5044,-1.7790,-0.3419,-0.1081,1.4471,49.27858943,-122.98368737,0.60000002,
5.0160,0.2925,1.1137,0.1714,-3.8081,0.5044,-1.7790,0.2758,0.1340,0.6827,49.27858943,-122.98368737,0.60000002,
5.0460,0.2925,1.1137,0.1714,0.1119,0.3491,1.9351,0.2758,0.1340,0.6827,49.27858943,-122.98368737,0.60000002,
5.0690,0.3426,1.1137,-0.0830,0.1119,0.3491,1.9351,0.2758,0.1340,0.6827,49.27858943,-122.98368737,0.60000002,
5.0830,0.3426,1.1137,-0.0830,0.1119,0.3491,1.9351,0.0098,0.2881,-0.4776,49.27858943,-122.98368737,0.60000002,
5.1020,0.3426,1.1137,-0.0830,3.0790,1.2171,0.9712,0.0098,0.2881,-0.4776,49.27858943,-122.98368737,0.60000002,
5.1420,0.0161,1.0598,-0.0398,3.0790,1.2171,0.9712,0.0098,0.2881,-0.4776,49.27858943,-122.98368737,0.60000002,
5.1610,0.0161,1.0598,-0.0398,3.0790,1.2171,0.9712,-1.0318,-0.4269,-0.7782,49.27858943,-122.98368737,0.60000002,
5.1790,0.0161,1.0598,-0.0398,0.7298,2.0568,-3.1171,-1.0318,-0.4269,-0.7782,49.27858943,-122.98368737,0.60000002,
5.1980,-0.0370,0.7934,0.2461,0.7298,2.0568,-3.1171,-1.0318,-0.4269,-0.7782,49.27858943,-122.98368737,0.60000002,
5.2170,-0.0370,0.7934,0.2461,0.7298,2.0568,-3.1171,-0.3371,-0.0775,0.1662,49.27858943,-122.98368737,0.60000002,
5.2370,-0.0370,0.7934,0.2461,-2.6373,-2.2960,0.6930,-0.3371,-0.0775,0.1662,49.27858943,-122.98368737,0.60000002,
5.2750,0.1188,1.0447,0.1333,-2.6373,-2.2960,0.6930,-0.3371,-0.0775,0.1662,49.27858943,-122.98368737,0.60000002,
5.2940,0.1188,1.0447,0.1333,-2.6373,-2.2960,0.6930,-0.2672,0.0312,0.1364,49.27858943,-122.98368737,0.60000002,
5.3130,0.1188,1.0447,0.1333,-0.2143,0.0679,-0.6446,-0.2672,0.0312,0.1364,49.27858943,-122.98368737,0.60000002,
5.3320,0.1245,1.1091,0.2204,-0.2143,0.0679,-0.6446,-0.2672,0.0312,0.1364,49.27858943,-122.98368737,0.60000002,
5.3520,0.1245,1.1091,0.2204,-0.2143,0.0679,-0.6446,-0.2563,-0.0220,0.1280,49.27858943,-122.98368737,0.60000002,
5.3690,0.1245,1.1091,0.2204,0.1641,0.6811,-0.0622,-0.2563,-0.0220,0.1280,49.27858943,-122.98368737,0.60000002,
5.4070,0.2024,1.1981,0.2042,0.1641,0.6811,-0.0622,-0.2563,-0.0220,0.1280,49.27858943,-122.98368737,0.60000002,
5.4270,0.2024,1.1981,0.2042,0.1641,0.6811,-0.0622,-0.1239,-0.2760,-0.3067,49.27858943,-122.98368737,0.60000002,
5.4460,0.2024,1.1981,0.2042,0.4158,2.8176,0.8583,-0.1239,-0.2760,-0.3067,49.27858943,-122.98368737,0.60000002,
5.4640,0.1355,0.6424,0.0837,0.4158,2.8176,0.8583,-0.1239,-0.2760,-0.3067,49.27858943,-122.98368737,0.60000002,
5.4830,0.1355,0.6424,0.0837,0.4158,2.8176,0.8583,-0.5770,0.1968,-0.1828,49.27858943,-122.98368737,0.60000002,
5.5030,0.1355,0.6424,0.0837,0.5927,-1.7746,-1.1070,-0.5770,0.1968,-0.1828,49.27858943,-122.98368737,0.60000002,
5.5420,0.1008,0.6929,0.4091,0.5927,-1.7746,-1.1070,-0.5770,0.1968,-0.1828,49.27858943,-122.98368737,0.60000002,
5.5600,0.1008,0.6929,0.4091,0.5927,-1.7746,-1.1070,0.2006,0.5569,-0.3198,49.27858943,-122.98368737,0.60000002,
5.5790,0.1008,0.6929,0.4091,1.2890,-3.4317,0.3459,0.2006,0.5569,-0.3198,49.27858943,-122.98368737,0.60000002,
5.5980,-0.0132,1.2953,0.1092,1.2890,-3.4317,0.3459,0.2006,0.5569,-0.3198,49.27858943,-122.98368737,0.60000002,
5.6180,-0.0132,1.2953,0.1092,1.2890,-3.4317,0.3459,0.3233,-0.0115,-0.3060,49.27858943,-122.98368737,0.60000002,
5.6370,-0.0132,1.2953,0.1092,-0.5309,0.4590,1.2927,0.3233,-0.0115,-0.3060,49.27858943,-122.98368737,0.60000002,
5.6750,0.0490,1.0281,0.1776,-0.5309,0.4590,1.2927,0.3233,-0.0115,-0.3060,49.27858943,-122.98368737,0.60000002,
5.6920,0.0490,1.0281,0.1776,-0.5309,0.4590,1.2927,-0.2902,0.0956,0.0860,49.27858943,-122.98368737,0.60000002,
5.7120,0.0490,1.0281,0.1776,-0.7022,2.0538,-1.4751,-0.2902,0.0956,0.0860,49.27858943,-122.98368737,0.60000002,
5.7320,0.0889,1.0255,0.1734,-0.7022,2.0538,-1.4751,-0.2902,0.0956,0.0860,49.27858943,-122.98368737,0.60000002,
5.7500,0.0889,1.0255,0.1734,-0.7022,2.0538,-1.4751,-0.1158,0.3637,0.2621,49.27858943,-122.98368737,0.60000002,
5.7690,0.0889,1.0255,0.1734,0.1223,0.1966,0.4805,-0.1158,0.3637,0.2621,49.27858943,-122.98368737,0.60000002,
5.8080,0.1172,0.9504,0.0936,0.1223,0.1966,0.4805,-0.1158,0.3637,0.2621,49.27858943,-122.98368737,0.60000002,
5.8270,0.1172,0.9504,0.0936,0.1223,0.1966,0.4805,-0.2288,0.2447,0.1474,49.27858943,-122.98368737,0.60000002,
5.8460,0.1172,0.9504,0.0936,0.2262,0.6274,-1.3917,-0.2288,0.2447,0.1474,49.27858943,-122.98368737,0.60000002,
5.8650,0.0563,0.8946,0.2108,0.2262,0.6274,-1.3917,-0.2288,0.2447,0.1474,49.27858943,-122.98368737,0.60000002,
5.8840,0.0563,0.8946,0.2108,0.2262,0.6274,-1.3917,-0.2715,0.3799,0.1652,49.27858943,-122.98368737,0.60000002,
5.9020,0.0563,0.8946,0.2108,0.1092,-1.0049,-1.1472,-0.2715,0.3799,0.1652,49.27858943,-122.98368737,0.60000002,
5.9400,0.0056,0.9836,0.4012,0.1092,-1.0049,-1.1472,-0.2715,0.3799,0.1652,49.27858943,-122.98368737,0.60000002,
5.9590,0.0056,0.9836,0.4012,0.1092,-1.0049,-1.1472,-0.3574,0.3586,0.3062,49.27858943,-122.98368737,0.60000002,
5.9780,0.0056,0.9836,0.4012,-0.6274,0.0739,0.4644,-0.3574,0.3586,0.3062,49.27858943,-122.98368737,0.60000002,
5.9980,0.0312,0.9415,0.3570,-0.6274,0.0739,0.4644,-0.3574,0.3586,0.3062,49.27858943,-122.98368737,0.60000002,
6.0170,0.0312,0.9415,0.3570,-0.6274,0.0739,0.4644,0.1292,-0.2425,0.1031,49.27858943,-122.98368737,0.60000002,
6.0450,0.0312,0.9415,0.3570,-1.2619,-0.2462,1.9769,0.1292,-0.2425,0.1031,49.27858943,-122.98368737,0.60000002,
6.0640,0.1767,1.0175,0.3130,-1.2619,-0.2462,1.9769,0.1292,-0.2425,0.1031,49.27858943,-122.98368737,0.60000002,
6.0830,0.1767,1.0175,0.3130,-1.2619,-0.2462,1.9769,0.1023,-0.2501,0.0486,49.27858943,-122.98368737,0.60000002,
6.1030,0.1767,1.0175,0.3130,0.1223,0.2022,0.2832,0.1023,-0.2501,0.0486,49.27858943,-122.98368737,0.60000002,
6.1410,0.2848,1.0516,0.2409,0.1223,0.2022,0.2832,0.1023,-0.2501,0.0486,49.27858943,-122.98368737,0.60000002,
6.1600,0.2848,1.0516,0.2409,0.1223,0.2022,0.2832,-0.1881,0.4112,-0.0399,49.27858943,-122.98368737,0.60000002,
6.1790,0.2848,1.0516,0.2409,1.7800,0.7439,-0.1236,-0.1881,0.4112,-0.0399,49.27858943,-122.98368737,0.60000002,
6.1980,0.0800,0.7509,0.3182,1.7800,0.7439,-0.1236,-0.1881,0.4112,-0.0399,49.27858943,-122.98368737,0.60000002,
6.2170,0.0800,0.7509,0.3182,1.7800,0.7439,-0.1236,-0.4607,0.4564,0.1210,49.27858943,-122.98368737,0.60000002,
6.2360,0.0800,0.7509,0.3182,0.4947,-0.6656,-0.8500,-0.4607,0.4564,0.1210,49.27858943,-122.98368737,0.60000002,
6.2740,-0.0063,1.0800,0.3807,0.4947,-0.6656,-0.8500,-0.4607,0.4564,0.1210,49.27858943,-122.98368737,0.60000002,
6.2930,-0.0063,1.0800,0.3807,0.4947,-0.6656,-0.8500,0.1851,0.1333,0.1006,49.27858943,-122.98368737,0.60000002,
6.3130,-0.0063,1.0800,0.3807,-0.7922,-0.9150,1.7837,0.1851,0.1333,0.1006,49.27858943,-122.98368737,0.60000002,
6.3300,0.1120,1.0407,0.4508,-0.7922,-0.9150,1.7837,0.1851,0.1333,0.1006,49.27858943,-122.98368737,0.60000002,
6.3490,0.1120,1.0407,0.4508,-0.7922,-0.9150,1.7837,0.1812,-0.1353,-0.2097,49.27858943,-122.98368737,0.60000002,
6.3690,0.1120,1.0407,0.4508,-0.3402,2.0624,0.7252,0.1812,-0.1353,-0.2097,49.27858943,-122.98368737,0.60000002,
6.4080,0.0474,0.7763,0.3871,-0.3402,2.0624,0.7252,0.1812,-0.1353,-0.2097,49.27858943,-122.98368737,0.60000002,
6.4260,0.0474,0.7763,0.3871,-0.3402,2.0624,0.7252,0.3849,-0.2241,0.1031,49.27858943,-122.98368737,0.60000002,
6.4450,0.0474,0.7763,0.3871,-0.1502,-1.5191,2.0890,0.3849,-0.2241,0.1031,49.27858943,-122.98368737,0.60000002,
6.4630,0.1623,1.0694,0.3014,-0.1502,-1.5191,2.0890,0.3849,-0.2241,0.1031,49.27858943,-122.98368737,0.60000002,
6.4840,0.1623,1.0694,0.3014,-0.1502,-1.5191,2.0890,0.2847,0.0005,0.1263,49.27858943,-122.98368737,0.60000002,
6.5020,0.1623,1.0694,0.3014,-0.3062,-0.4296,0.6517,0.2847,0.0005,0.1263,49.27858943,-122.98368737,0.60000002,
6.5400,0.0911,0.9694,0.2358,-0.3062,-0.4296,0.6517,0.2847,0.0005,0.1263,49.27858943,-122.98368737,0.60000002,
6.5600,0.0911,0.9694,0.2358,-0.3062,-0.4296,0.6517,0.2529,0.3379,-0.0017,49.27858943,-122.98368737,0.60000002,
6.5780,0.0911,0.9694,0.2358,0.5746,0.7135,0.7957,0.2529,0.3379,-0.0017,49.27858943,-122.98368737,0.60000002,
6.5970,0.1329,0.9610,0.1686,0.5746,0.7135,0.7957,0.2529,0.3379,-0.0017,49.27858943,-122.98368737,0.60000002,
6.6160,0.1329,0.9610,0.1686,0.5746,0.7135,0.7957,0.0371,0.0644,0.0357,49.27858943,-122.98368737,0.60000002,
6.6350,0.1329,0.9610,0.1686,-0.1456,-0.1023,-0.8452,0.0371,0.0644,0.0357,49.27858943,-122.98368737,0.60000002,
6.6730,-0.0421,1.0441,0.2438,-0.1456,-0.1023,-0.8452,0.0371,0.0644,0.0357,49.27858943,-122.98368737,0.60000002,
6.6920,-0.0421,1.0441,0.2438,-0.1456,-0.1023,-0.8452,-0.1556,0.1335,-0.0125,49.27858943,-122.98368737,0.60000002,
6.7110,-0.0421,1.0441,0.2438,-0.4685,0.1917,-0.2004,-0.1556,0.1335,-0.0125,49.27858943,-122.98368737,0.60000002,
6.7310,-0.0649,0.8950,0.2275,-0.4685,0.1917,-0.2004,-0.1556,0.1335,-0.0125,49.27858943,-122.98368737,0.60000002,
6.7490,-0.0649,0.8950,0.2275,-0.4685,0.1917,-0.2004,-0.1359,-0.2212,-0.1950,49.27858943,-122.98368737,0.60000002,
6.7690,-0.0649,0.8950,0.2275,-1.6760,-0.1244,0.0261,-0.1359,-0.2212,-0.1950,49.27858943,-122.98368737,0.60000002,
6.8060,0.1220,1.0253,0.2520,-1.6760,-0.1244,0.0261,-0.1359,-0.2212,-0.1950,49.27858943,-122.98368737,0.60000002,
6.8250,0.1220,1.0253,0.2520,-1.6760,-0.1244,0.0261,-0.0911,-0.3938,-0.0971,49.27858943,-122.98368737,0.60000002,
6.8450,0.1220,1.0253,0.2520,-0.3691,0.0710,-0.3110,-0.0911,-0.3938,-0.0971,49.27858943,-122.98368737,0.60000002,
6.8630,0.1774,1.0644,0.2433,-0.3691,0.0710,-0.3110,-0.0911,-0.3938,-0.0971,49.27858943,-122.98368737,0.60000002,
6.8820,0.1774,1.0644,0.2433,-0.3691,0.0710,-0.3110,-0.0507,0.0426,-0.1046,49.27858943,-122.98368737,0.60000002,
6.9050,0.1774,1.0644,0.2433,0.6517,0.5583,0.1547,-0.0507,0.0426,-0.1046,49.27858943,-122.98368737,0.60000002,
6.9400,0.0063,1.0092,0.3388,0.6517,0.5583,0.1547,-0.0507,0.0426,-0.1046,49.27858943,-122.98368737,0.60000002,
6.9580,0.0063,1.0092,0.3388,0.6517,0.5583,0.1547,0.0172,0.1775,-0.1252,49.27856036,-122.98366784,0.66000003,
6.9770,0.0063,1.0092,0.3388,0.5574,1.3441,0.4157,0.0172,0.1775,-0.1252,49.27856036,-122.98366784,0.66000003,
6.9980,0.0059,0.9956,0.2108,0.5574,1.3441,0.4157,0.0172,0.1775,-0.1252,49.27856036,-122.98366784,0.66000003,
7.0160,0.0059,0.9956,0.2108,0.5574,1.3441,0.4157,-0.4330,-0.3610,0.2244,49.27856036,-122.98366784,0.66000003,
7.0440,0.0059,0.9956,0.2108,-2.2065,-0.1276,-0.1253,-0.4330,-0.3610,0.2244,49.27856036,-122.98366784,0.66000003,
7.0630,0.0790,1.0124,0.3520,-2.2065,-0.1276,-0.1253,-0.4330,-0.3610,0.2244,49.27856036,-122.98366784,0.66000003,
7.0820,0.0790,1.0124,0.3520,-2.2065,-0.1276,-0.1253,-0.5009,-0.6008,-0.2027,49.27856036,-122.98366784,0.66000003,
7.1010,0.0790,1.0124,0.3520,0.4141,0.4120,-0.4685,-0.5009,-0.6008,-0.2027,49.27856036,-122.98366784,0.66000003,
7.1400,0.0931,0.6645,0.3239,0.4141,0.4120,-0.4685,-0.5009,-0.6008,-0.2027,49.27856036,-122.98366784,0.66000003,
7.1590,0.0931,0.6645,0.3239,0.4141,0.4120,-0.4685,-0.8000,-1.0031,-0.0582,49.27856036,-122.98366784,0.66000003,
7.1780,0.0931,0.6645,0.3239,-0.2172,-0.6860,-0.1401,-0.8000,-1.0031,-0.0582,49.27856036,-122.98366784,0.66000003,
7.1970,0.1871,1.1849,0.5456,-0.2172,-0.6860,-0.1401,-0.8000,-1.0031,-0.0582,49.27856036,-122.98366784,0.66000003,
7.2150,0.1871,1.1849,0.5456,-0.2172,-0.6860,-0.1401,-0.2569,-0.8414,-0.0737,49.27856036,-122.98366784,0.66000003,
7.2350,0.1871,1.1849,0.5456,0.4100,-1.8300,1.3753,-0.2569,-0.8414,-0.0737,49.27856036,-122.98366784,0.66000003,
7.2730,0.1842,0.8619,0.4796,0.4100,-1.8300,1.3753,-0.2569,-0.8414,-0.0737,49.27856036,-122.98366784,0.66000003,
7.2910,0.1842,0.8619,0.4796,0.4100,-1.8300,1.3753,-0.5665,-0.6697,0.0121,49.27856036,-122.98366784,0.66000003,
7.3110,0.1842,0.8619,0.4796,0.0604,2.7337,0.2135,-0.5665,-0.6697,0.0121,49.27856036,-122.98366784,0.66000003,
7.3300,0.1987,0.9433,0.5279,0.0604,2.7337,0.2135,-0.5665,-0.6697,0.0121,49.27856036,-122.98366784,0.66000003,
7.3490,0.1987,0.9433,0.5279,0.0604,2.7337,0.2135,-0.7482,-0.4035,0.1718,49.27856036,-122.98366784,0.66000003,
7.3680,0.1987,0.9433,0.5279,0.1089,-0.1025,0.7850,-0.7482,-0.4035,0.1718,49.27856036,-122.98366784,0.66000003,
7.4060,0.2394,0.8319,0.5944,0.1089,-0.1025,0.7850,-0.7482,-0.4035,0.1718,49.27856036,-122.98366784,0.66000003,
7.4260,0.2394,0.8319,0.5944,0.1089,-0.1025,0.7850,-0.8197,0.0398,0.3561,49.27856036,-122.98366784,0.66000003,
7.4430,0.2394,0.8319,0.5944,0.3178,0.0039,0.9257,-0.8197,0.0398,0.3561,49.27856036,-122.98366784,0.66000003,
7.4640,0.2289,0.7216,0.5676,0.3178,0.0039,0.9257,-0.8197,0.0398,0.3561,49.27856036,-122.98366784,0.66000003,
7.4820,0.2289,0.7216,0.5676,0.3178,0.0039,0.9257,-0.6949,0.3770,0.1785,49.27856036,-122.98366784,0.66000003,
7.5010,0.2289,0.7216,0.5676,0.8033,-0.4214,0.3883,-0.6949,0.3770,0.1785,49.27856036,-122.98366784,0.66000003,
7.5390,0.1418,0.5949,0.5750,0.8033,-0.4214,0.3883,-0.6949,0.3770,0.1785,49.27856036,-122.98366784,0.66000003,
7.5580,0.1418,0.5949,0.5750,0.8033,-0.4214,0.3883,-0.2129,0.5878,0.0956,49.27856036,-122.98366784,0.66000003,
7.5770,0.1418,0.5949,0.5750,-0.1850,-2.1726,0.1513,-0.2129,0.5878,0.0956,49.27856036,-122.98366784,0.66000003,
7.5970,0.2750,0.5168,0.6206,-0.1850,-2.1726,0.1513,-0.2129,0.5878,0.0956,49.27856036,-122.98366784,0.66000003,
7.6150,0.2750,0.5168,0.6206,-0.1850,-2.1726,0.1513,0.3627,0.5962,-0.4048,49.27856036,-122.98366784,0.66000003,
7.6350,0.2750,0.5168,0.6206,1.3534,-2.9314,0.9400,0.3627,0.5962,-0.4048,49.27856036,-122.98366784,0.66000003,
7.6740,-0.1640,1.0890,0.9098,1.3534,-2.9314,0.9400,0.3627,0.5962,-0.4048,49.27856036,-122.98366784,0.66000003,
7.6920,-0.1640,1.0890,0.9098,1.3534,-2.9314,0.9400,0.5788,-0.0138,-0.0633,49.27856036,-122.98366784,0.66000003,
7.7110,-0.1640,1.0890,0.9098,-1.1800,-1.6605,2.1461,0.5788,-0.0138,-0.0633,49.27856036,-122.98366784,0.66000003,
7.7310,0.6433,0.6886,0.3965,-1.1800,-1.6605,2.1461,0.5788,-0.0138,-0.0633,49.27856036,-122.98366784,0.66000003,
7.7490,0.6433,0.6886,0.3965,-1.1800,-1.6605,2.1461,1.3172,0.8660,-0.1669,49.27856036,-122.98366784,0.66000003,
7.7680,0.6433,0.6886,0.3965,2.8352,1.2459,1.9399,1.3172,0.8660,-0.1669,49.27856036,-122.98366784,0.66000003,
7.8060,-0.1033,1.2188,0.0566,2.8352,1.2459,1.9399,1.3172,0.8660,-0.1669,49.27856036,-122.98366784,0.66000003,
7.8250,-0.1033,1.2188,0.0566,2.8352,1.2459,1.9399,1.5916,0.7552,-0.0734,49.27856036,-122.98366784,0.66000003,
7.8430,-0.1033,1.2188,0.0566,0.8334,0.1504,-0.3275,1.5916,0.7552,-0.0734,49.27856036,-122.98366784,0.66000003,
7.8630,0.0669,0.9262,0.2111,0.8334,0.1504,-0.3275,1.5916,0.7552,-0.0734,49.27856036,-122.98366784,0.66000003,
7.8820,0.0669,0.9262,0.2111,0.8334,0.1504,-0.3275,1.8005,0.4756,-0.0936,49.27856036,-122.98366784,0.66000003,
7.9010,0.0669,0.9262,0.2111,-0.3001,0.0341,-0.4855,1.8005,0.4756,-0.0936,49.27856036,-122.98366784,0.66000003,
7.9380,0.0191,1.0185,0.0760,-0.3001,0.0341,-0.4855,1.8005,0.4756,-0.0936,49.27856036,-122.98366784,0.66000003,
7.9570,0.0191,1.0185,0.0760,-0.3001,0.0341,-0.4855,2.0222,0.6349,-0.4570,49.27856036,-122.98366784,0.66000003,
7.9760,0.0191,1.0185,0.0760,0.8171,0.2050,1.1377,2.0222,0.6349,-0.4570,49.27856036,-122.98366784,0.66000003,
7.9950,-0.2715,0.9026,-0.0558,0.8171,0.2050,1.1377,2.0222,0.6349,-0.4570,49.27856036,-122.98366784,0.66000003,
8.0140,-0.2715,0.9026,-0.0558,0.8171,0.2050,1.1377,1.7051,-0.2185,-0.3230,49.27856036,-122.98366784,0.66000003,
8.0420,-0.2715,0.9026,-0.0558,-2.0672,-0.6784,-0.0244,1.7051,-0.2185,-0.3230,49.27856036,-122.98366784,0.66000003,
8.0610,0.0040,0.9631,0.0712,-2.0672,-0.6784,-0.0244,1.7051,-0.2185,-0.3230,49.27856036,-122.98366784,0.66000003,
8.0800,0.0040,0.9631,0.0712,-2.0672,-0.6784,-0.0244,1.4954,0.1122,-0.3535,49.27856036,-122.98366784,0.66000003,
8.1000,0.0040,0.9631,0.0712,-0.5033,-0.7463,1.6128,1.4954,0.1122,-0.3535,49.27856036,-122.98366784,0.66000003,
8.1390,0.0081,0.9697,-0.1086,-0.5033,-0.7463,1.6128,1.4954,0.1122,-0.3535,49.27856036,-122.98366784,0.66000003,
8.1570,0.0081,0.9697,-0.1086,-0.5033,-0.7463,1.6128,1.0935,0.4695,-0.1673,49.27856036,-122.98366784,0.66000003,
8.1760,0.0081,0.9697,-0.1086,0.6289,-0.1753,2.0855,1.0935,0.4695,-0.1673,49.27856036,-122.98366784,0.66000003,
8.1960,-0.1662,1.1066,-0.0151,0.6289,-0.1753,2.0855,1.0935,0.4695,-0.1673,49.27856036,-122.98366784,0.66000003,
8.2150,-0.1662,1.1066,-0.0151,0.6289,-0.1753,2.0855,0.5181,0.5412,-0.0353,49.27856036,-122.98366784,0.66000003,
8.2330,-0.1662,1.1066,-0.0151,-0.2259,0.6961,1.0658,0.5181,0.5412,-0.0353,49.27856036,-122.98366784,0.66000003,
8.2720,-0.2053,1.2262,0.1597,-0.2259,0.6961,1.0658,0.5181,0.5412,-0.0353,49.27856036,-122.98366784,0.66000003,
8.2910,-0.2053,1.2262,0.1597,-0.2259,0.6961,1.0658,0.1838,0.3970,0.1059,49.27856036,-122.98366784,0.66000003,
8.3100,-0.2053,1.2262,0.1597,-2.5657,1.4756,2.9563,0.1838,0.3970,0.1059,49.27856036,-122.98366784,0.66000003,
8.3280,-0.1392,1.5827,-0.0551,-2.5657,1.4756,2.9563,0.1838,0.3970,0.1059,49.27856036,-122.98366784,0.66000003,
8.3480,-0.1392,1.5827,-0.0551,-2.5657,1.4756,2.9563,-1.5988,0.0815,0.2966,49.27856036,-122.98366784,0.66000003,
8.3670,-0.1392,1.5827,-0.0551,-1.2898,4.1340,1.4994,-1.5988,0.0815,0.2966,49.27856036,-122.98366784,0.66000003,
8.4050,-0.1472,1.3010,-0.1441,-1.2898,4.1340,1.4994,-1.5988,0.0815,0.2966,49.27856036,-122.98366784,0.66000003,
8.4240,-0.1472,1.3010,-0.1441,-1.2898,4.1340,1.4994,-2.7424,-0.6552,0.3722,49.27856036,-122.98366784,0.66000003,
8.4430,-0.1472,1.3010,-0.1441,-1.1689,4.2381,-1.9287,-2.7424,-0.6552,0.3722,49.27856036,-122.98366784,0.66000003,
8.4620,-0.0949,1.2598,0.0122,-1.1689,4.2381,-1.9287,-2.7424,-0.6552,0.3722,49.27856036,-122.98366784,0.66000003,
8.4820,-0.0949,1.2598,0.0122,-1.1689,4.2381,-1.9287,-1.8463,-0.6894,-0.1322,49.27856036,-122.98366784,0.66000003,
8.5010,-0.0949,1.2598,0.0122,-1.9127,3.0772,-2.5096,-1.8463,-0.6894,-0.1322,49.27856036,-122.98366784,0.66000003,
8.5390,-0.0276,1.1004,-0.2242,-1.9127,3.0772,-2.5096,-1.8463,-0.6894,-0.1322,49.27856036,-122.98366784,0.66000003,
8.5590,-0.0276,1.1004,-0.2242,-1.9127,3.0772,-2.5096,-2.0586,-2.1452,-0.2195,49.27856036,-122.98366784,0.66000003,
8.5770,-0.0276,1.1004,-0.2242,-0.5448,2.2081,-5.2084,-2.0586,-2.1452,-0.2195,49.27856036,-122.98366784,0.66000003,
8.5960,0.1662,0.6886,0.0304,-0.5448,2.2081,-5.2084,-2.0586,-2.1452,-0.2195,49.27856036,-122.98366784,0.66000003,
8.6150,0.1662,0.6886,0.0304,-0.5448,2.2081,-5.2084,-1.6788,-1.5141,0.2799,49.27856036,-122.98366784,0.66000003,
8.6330,0.1662,0.6886,0.0304,-0.8206,-0.9113,-4.9907,-1.6788,-1.5141,0.2799,49.27856036,-122.98366784,0.66000003,
8.6720,0.4393,0.5514,0.2514,-0.8206,-0.9113,-4.9907,-1.6788,-1.5141,0.2799,49.27856036,-122.98366784,0.66000003,
8.6910,0.4393,0.5514,0.2514,-0.8206,-0.9113,-4.9907,-1.1637,0.8269,0.0010,49.27856036,-122.98366784,0.66000003,
8.7090,0.4393,0.5514,0.2514,3.7034,-3.1610,-2.8735,-1.1637,0.8269,0.0010,49.27856036,-122.98366784,0.66000003,
8.7290,-0.0175,0.6236,0.3113,3.7034,-3.1610,-2.8735,-1.1637,0.8269,0.0010,49.27856036,-122.98366784,0.66000003,
8.7480,-0.0175,0.6236,0.3113,3.7034,-3.1610,-2.8735,-0.6738,0.5553,-0.4006,49.27856036,-122.98366784,0.66000003,
8.7660,-0.0175,0.6236,0.3113,2.0878,-2.6821,-2.4524,-0.6738,0.5553,-0.4006,49.27856036,-122.98366784,0.66000003,
8.8050,-0.2818,0.7536,0.5540,2.0878,-2.6821,-2.4524,-0.6738,0.5553,-0.4006,49.27856036,-122.98366784,0.66000003,
8.8250,-0.2818,0.7536,0.5540,2.0878,-2.6821,-2.4524,-0.6403,-0.3693,-0.1385,49.27856036,-122.98366784,0.66000003,
8.8430,-0.2818,0.7536,0.5540,-3.1903,-1.5825,-1.2408,-0.6403,-0.3693,-0.1385,49.27856036,-122.98366784,0.66000003,
8.8610,0.0644,0.7439,0.8216,-3.1903,-1.5825,-1.2408,-0.6403,-0.3693,-0.1385,49.27856036,-122.98366784,0.66000003,
8.8810,0.0644,0.7439,0.8216,-3.1903,-1.5825,-1.2408,-0.2364,-0.6062,-0.2608,49.27856036,-122.98366784,0.66000003,
8.9000,0.0644,0.7439,0.8216,-1.1548,-0.4475,1.4948,-0.2364,-0.6062,-0.2608,49.27856036,-122.98366784,0.66000003,
8.9380,0.1321,1.1657,0.7309,-1.1548,-0.4475,1.4948,-0.2364,-0.6062,-0.2608,49.27856036,-122.98366784,0.66000003,
8.9570,0.1321,1.1657,0.7309,-1.1548,-0.4475,1.4948,0.0929,-0.5252,-0.4008,49.27856036,-122.98366784,0.66000003,
8.9770,0.1321,1.1657,0.7309,1.5345,-0.7437,2.5980,0.0929,-0.5252,-0.4008,49.27856036,-122.98366784,0.66000003,
8.9960,0.5762,0.6050,0.4941,1.5345,-0.7437,2.5980,0.0929,-0.5252,-0.4008,49.27856036,-122.98366784,0.66000003,
9.0150,0.5762,0.6050,0.4941,1.5345,-0.7437,2.5980,0.8354,0.9067,0.4746,49.27856036,-122.98366784,0.66000003,
9.0330,0.5762,0.6050,0.4941,1.5780,2.5049,1.2336,0.8354,0.9067,0.4746,49.27856036,-122.98366784,0.66000003,
9.0710,-0.1846,1.1357,0.0626,1.5780,2.5049,1.2336,0.8354,0.9067,0.4746,49.27856036,-122.98366784,0.66000003,
9.0910,-0.1846,1.1357,0.0626,1.5780,2.5049,1.2336,1.7120,1.8026,-0.4472,49.27856036,-122.98366784,0.66000003,
9.1090,-0.1846,1.1357,0.0626,5.4654,-1.2046,0.2195,1.7120,1.8026,-0.4472,49.27856036,-122.98366784,0.66000003,
9.1280,-0.1141,0.8707,0.2212,5.4654,-1.2046,0.2195,1.7120,1.8026,-0.4472,49.27856036,-122.98366784,0.66000003,
9.1470,-0.1141,0.8707,0.2212,5.4654,-1.2046,0.2195,1.7065,0.9377,0.5198,49.27856036,-122.98366784,0.66000003,
9.1670,-0.1141,0.8707,0.2212,-4.5498,-0.0861,-2.8007,1.7065,0.9377,0.5198,49.27856036,-122.98366784,0.66000003,
9.2040,0.1415,0.9828,0.0788,-4.5498,-0.0861,-2.8007,1.7065,0.9377,0.5198,49.27856036,-122.98366784,0.66000003,
9.2240,0.1415,0.9828,0.0788,-4.5498,-0.0861,-2.8007,2.2873,1.4367,-0.2511,49.27856036,-122.98366784,0.66000003,
9.2420,0.1415,0.9828,0.0788,4.2857,-0.7600,1.4578,2.2873,1.4367,-0.2511,49.27856036,-122.98366784,0.66000003,
9.2620,-0.6349,0.8523,-0.0858,4.2857,-0.7600,1.4578,2.2873,1.4367,-0.2511,49.27856036,-122.98366784,0.66000003,
9.2810,-0.6349,0.8523,-0.0858,4.2857,-0.7600,1.4578,1.8459,-0.4268,0.0282,49.27856036,-122.98366784,0.66000003,
9.3000,-0.6349,0.8523,-0.0858,-4.1477,-0.8052,-0.9563,1.8459,-0.4268,0.0282,49.27856036,-122.98366784,0.66000003,
9.3390,0.0555,0.9453,0.1055,-4.1477,-0.8052,-0.9563,1.8459,-0.4268,0.0282,49.27856036,-122.98366784,0.66000003,
9.3580,0.0555,0.9453,0.1055,-4.1477,-0.8052,-0.9563,1.7778,-0.6669,-0.1678,49.27856036,-122.98366784,0.66000003,
9.3760,0.0555,0.9453,0.1055,-1.7626,-1.2919,1.6212,1.7778,-0.6669,-0.1678,49.27856036,-122.98366784,0.66000003,
9.3940,0.0373,0.8974,0.0129,-1.7626,-1.2919,1.6212,1.7778,-0.6669,-0.1678,49.27856036,-122.98366784,0.66000003,
9.4140,0.0373,0.8974,0.0129,-1.7626,-1.2919,1.6212,1.4146,0.5669,-0.1919,49.27856036,-122.98366784,0.66000003,
9.4330,0.0373,0.8974,0.0129,2.7267,0.1147,3.2042,1.4146,0.5669,-0.1919,49.27856036,-122.98366784,0.66000003,
9.4720,-0.0987,0.9639,-0.1381,2.7267,0.1147,3.2042,1.4146,0.5669,-0.1919,49.27856036,-122.98366784,0.66000003,
9.4900,-0.0987,0.9639,-0.1381,2.7267,0.1147,3.2042,0.9790,0.7173,0.0872,49.27856036,-122.98366784,0.66000003,
9.5090,-0.0987,0.9639,-0.1381,-0.3834,-0.4383,1.0516,0.9790,0.7173,0.0872,49.27856036,-122.98366784,0.66000003,
9.5270,-0.1374,1.1219,-0.1514,-0.3834,-0.4383,1.0516,0.9790,0.7173,0.0872,49.27856036,-122.98366784,0.66000003,
9.5510,-0.1374,1.1219,-0.1514,-0.3834,-0.4383,1.0516,0.5694,1.1039,0.0936,49.27856036,-122.98366784,0.66000003,
9.5690,-0.1374,1.1219,-0.1514,-0.8817,0.3478,1.7060,0.5694,1.1039,0.0936,49.27856036,-122.98366784,0.66000003,
9.6030,-0.2730,1.3827,-0.0923,-0.8817,0.3478,1.7060,0.5694,1.1039,0.0936,49.27856036,-122.98366784,0.66000003,
9.6230,-0.2730,1.3827,-0.0923,-0.8817,0.3478,1.7060,0.0435,0.7931,-0.0015,49.27856036,-122.98366784,0.66000003,
9.6420,-0.2730,1.3827,-0.0923,-1.1606,2.9472,1.9419,0.0435,0.7931,-0.0015,49.27856036,-122.98366784,0.66000003,
9.6620,-0.2985,1.4932,-0.2350,-1.1606,2.9472,1.9419,0.0435,0.7931,-0.0015,49.27856036,-122.98366784,0.66000003,
9.6800,-0.2985,1.4932,-0.2350,-1.1606,2.9472,1.9419,-1.7638,-0.6514,-0.1598,49.27856036,-122.98366784,0.66000003,
9.6990,-0.2985,1.4932,-0.2350,-2.5166,6.0283,-1.1850,-1.7638,-0.6514,-0.1598,49.27856036,-122.98366784,0.66000003,
9.7380,-0.2364,1.3660,-0.1420,-2.5166,6.0283,-1.1850,-1.7638,-0.6514,-0.1598,49.27856036,-122.98366784,0.66000003,
9.7570,-0.2364,1.3660,-0.1420,-2.5166,6.0283,-1.1850,-2.6637,-1.1975,-0.1137,49.27856036,-122.98366784,0.66000003,
9.7760,-0.2364,1.3660,-0.1420,-1.8788,2.5779,-1.0082,-2.6637,-1.1975,-0.1137,49.27856036,-122.98366784,0.66000003,
9.7940,0.0135,1.1037,-0.1869,-1.8788,2.5779,-1.0082,-2.6637,-1.1975,-0.1137,49.27856036,-122.98366784,0.66000003,
9.8140,0.0135,1.1037,-0.1869,-1.8788,2.5779,-1.0082,-2.0659,-1.9209,0.3657,49.27856036,-122.98366784,0.66000003,
9.8330,0.0135,1.1037,-0.1869,-0.7384,2.6466,-4.2772,-2.0659,-1.9209,0.3657,49.27856036,-122.98366784,0.66000003,
9.8720,0.0962,0.8510,-0.0913,-0.7384,2.6466,-4.2772,-2.0659,-1.9209,0.3657,49.27856036,-122.98366784,0.66000003,
9.8900,0.0962,0.8510,-0.0913,-0.7384,2.6466,-4.2772,-1.8378,-0.9177,0.5607,49.27856036,-122.98366784,0.66000003,
9.9090,0.0962,0.8510,-0.0913,1.1584,-0.1855,-4.0798,-1.8378,-0.9177,0.5607,49.27856036,-122.98366784,0.66000003,
9.9270,0.2515,0.6371,-0.0417,1.1584,-0.1855,-4.0798,-1.8378,-0.9177,0.5607,49.27856036,-122.98366784,0.66000003,
9.9470,0.2515,0.6371,-0.0417,1.1584,-0.1855,-4.0798,-1.2664,-0.1168,0.3907,49.27856036,-122.98366784,0.66000003,
9.9660,0.2515,0.6371,-0.0417,0.5081,-2.5423,-4.0008,-1.2664,-0.1168,0.3907,49.27856036,-122.98366784,0.66000003,
10.0040,0.2274,0.4299,0.0824,0.5081,-2.5423,-4.0008,-1.2664,-0.1168,0.3907,49.27856036,-122.98366784,0.66000003,
10.0230,0.2274,0.4299,0.0824,0.5081,-2.5423,-4.0008,-0.5190,1.2646,-0.5472,49.27856036,-122.98366784,0.66000003,
10.0350,0.2274,0.4299,0.0824,4.2427,-4.1914,-3.3505,-0.5190,1.2646,-0.5472,49.27856036,-122.98366784,0.66000003,
10.0710,-0.3335,0.6424,0.5452,4.2427,-4.1914,-3.3505,-0.5190,1.2646,-0.5472,49.27856036,-122.98366784,0.66000003,
10.0900,-0.3335,0.6424,0.5452,4.2427,-4.1914,-3.3505,0.2550,-0.1536,-0.3397,49.27856036,-122.98366784,0.66000003,
10.1090,-0.3335,0.6424,0.5452,-0.7892,-4.5240,-0.6884,0.2550,-0.1536,-0.3397,49.27856036,-122.98366784,0.66000003,
10.1280,-0.1973,1.3289,0.8511,-0.7892,-4.5240,-0.6884,0.2550,-0.1536,-0.3397,49.27856036,-122.98366784,0.66000003,
10.1470,-0.1973,1.3289,0.8511,-0.7892,-4.5240,-0.6884,-0.2754,-0.6116,0.1022,49.27856036,-122.98366784,0.66000003,
10.1670,-0.1973,1.3289,0.8511,-3.8956,0.4564,3.8286,-0.2754,-0.6116,0.1022,49.27856036,-122.98366784,0.66000003,
10.2040,0.3735,1.3556,0.5275,-3.8956,0.4564,3.8286,-0.2754,-0.6116,0.1022,49.27856036,-122.98366784,0.66000003,
10.2230,0.3735,1.3556,0.5275,-3.8956,0.4564,3.8286,-0.6627,-0.4933,0.0922,49.27856036,-122.98366784,0.66000003,
10.2420,0.3735,1.3556,0.5275,3.8460,4.8777,2.6644,-0.6627,-0.4933,0.0922,49.27856036,-122.98366784,0.66000003,
10.2610,0.5094,0.3653,-0.0117,3.8460,4.8777,2.6644,-0.6627,-0.4933,0.0922,49.27856036,-122.98366784,0.66000003,
10.2810,0.5094,0.3653,-0.0117,3.8460,4.8777,2.6644,0.6451,2.0005,-0.0980,49.27856036,-122.98366784,0.66000003,
10.3000,0.5094,0.3653,-0.0117,3.4945,-3.1325,-3.5471,0.6451,2.0005,-0.0980,49.27856036,-122.98366784,0.66000003,
10.3380,-0.7928,1.2787,-0.3648,3.4945,-3.1325,-3.5471,0.6451,2.0005,-0.0980,49.27856036,-122.98366784,0.66000003,
10.3560,-0.7928,1.2787,-0.3648,3.4945,-3.1325,-3.5471,1.5878,0.5208,-0.0469,49.27856036,-122.98366784,0.66000003,
10.3750,-0.7928,1.2787,-0.3648,-1.0591,3.1371,-1.4707,1.5878,0.5208,-0.0469,49.27856036,-122.98366784,0.66000003,
10.3930,0.2466,0.9636,0.2649,-1.0591,3.1371,-1.4707,1.5878,0.5208,-0.0469,49.27856036,-122.98366784,0.66000003,
10.4130,0.2466,0.9636,0.2649,-1.0591,3.1371,-1.4707,2.4276,0.6321,-0.0982,49.27856036,-122.98366784,0.66000003,
10.4320,0.2466,0.9636,0.2649,-1.0483,-1.4188,0.3500,2.4276,0.6321,-0.0982,49.27856036,-122.98366784,0.66000003,
10.4710,-0.3933,0.8499,-0.1681,-1.0483,-1.4188,0.3500,2.4276,0.6321,-0.0982,49.27856036,-122.98366784,0.66000003,
10.4900,-0.3933,0.8499,-0.1681,-1.0483,-1.4188,0.3500,2.0765,0.0551,-0.2292,49.27856036,-122.98366784,0.66000003,
10.5080,-0.3933,0.8499,-0.1681,-0.0670,-0.2765,-0.3399,2.0765,0.0551,-0.2292,49.27856036,-122.98366784,0.66000003,
10.5280,-0.2235,0.9194,-0.0007,-0.0670,-0.2765,-0.3399,2.0765,0.0551,-0.2292,49.27856036,-122.98366784,0.66000003,
10.5470,-0.2235,0.9194,-0.0007,-0.0670,-0.2765,-0.3399,1.5900,-0.2339,-0.0830,49.27856036,-122.98366784,0.66000003,
10.5670,-0.2235,0.9194,-0.0007,-2.5068,-1.5855,0.6669,1.5900,-0.2339,-0.0830,49.27856036,-122.98366784,0.66000003,
10.6040,0.0916,0.9617,-0.1025,-2.5068,-1.5855,0.6669,1.5900,-0.2339,-0.0830,49.27856036,-122.98366784,0.66000003,
10.6220,0.0916,0.9617,-0.1025,-2.5068,-1.5855,0.6669,1.1471,0.4339,-0.1816,49.27856036,-122.98366784,0.66000003,
10.6420,0.0916,0.9617,-0.1025,1.4621,0.4850,2.5935,1.1471,0.4339,-0.1816,49.27856036,-122.98366784,0.66000003,
10.6620,-0.0808,0.9408,-0.1043,1.4621,0.4850,2.5935,1.1471,0.4339,-0.1816,49.27856036,-122.98366784,0.66000003,
10.6800,-0.0808,0.9408,-0.1043,1.4621,0.4850,2.5935,0.6654,1.1519,0.0807,49.27856036,-122.98366784,0.66000003,
10.6990,-0.0808,0.9408,-0.1043,1.2475,-0.6509,0.8386,0.6654,1.1519,0.0807,49.27856036,-122.98366784,0.66000003,
10.7360,-0.2365,1.2690,-0.0211,1.2475,-0.6509,0.8386,0.6654,1.1519,0.0807,49.27856036,-122.98366784,0.66000003,
10.7570,-0.2365,1.2690,-0.0211,1.2475,-0.6509,0.8386,0.5832,0.9943,0.1067,49.27856036,-122.98366784,0.66000003,
10.7740,-0.2365,1.2690,-0.0211,-1.5494,1.8057,2.8607,0.5832,0.9943,0.1067,49.27856036,-122.98366784,0.66000003,
10.7930,-0.3408,1.7470,-0.2097,-1.5494,1.8057,2.8607,0.5832,0.9943,0.1067,49.27856036,-122.98366784,0.66000003,
10.8120,-0.3408,1.7470,-0.2097,-1.5494,1.8057,2.8607,-0.5764,-0.1564,-0.1271,49.27856036,-122.98366784,0.66000003,
10.8320,-0.3408,1.7470,-0.2097,-2.2847,5.3078,0.8819,-0.5764,-0.1564,-0.1271,49.27856036,-122.98366784,0.66000003,
10.8690,-0.2963,1.2969,-0.0312,-2.2847,5.3078,0.8819,-0.5764,-0.1564,-0.1271,49.27856036,-122.98366784,0.66000003,
10.8950,-0.2963,1.2969,-0.0312,-2.2847,5.3078,0.8819,-2.9110,-0.6365,0.4890,49.27856036,-122.98366784,0.66000003,
10.9100,-0.2963,1.2969,-0.0312,-1.8571,5.3234,-0.1256,-2.9110,-0.6365,0.4890,49.27856036,-122.98366784,0.66000003,
10.9260,-0.1925,1.2668,-0.2519,-1.8571,5.3234,-0.1256,-2.9110,-0.6365,0.4890,49.27856036,-122.98366784,0.66000003,
10.9460,-0.1925,1.2668,-0.2519,-1.8571,5.3234,-0.1256,-2.6703,-1.1732,0.1921,49.27857671,-122.98366505,0.00000000,
10.9650,-0.1925,1.2668,-0.2519,-2.3014,2.4432,-4.7935,-2.6703,-1.1732,0.1921,49.27857671,-122.98366505,0.00000000,
11.0040,0.0546,1.0710,0.0543,-2.3014,2.4432,-4.7935,-2.6703,-1.1732,0.1921,49.27857671,-122.98366505,0.00000000,
11.0220,0.0546,1.0710,0.0543,-2.3014,2.4432,-4.7935,-1.9528,-1.2551,0.2327,49.27857671,-122.98366505,0.00000000,
11.0330,0.0546,1.0710,0.0543,-0.3293,1.5351,-1.4265,-1.9528,-1.2551,0.2327,49.27857671,-122.98366505,0.00000000,
11.0700,0.0493,0.6986,-0.0886,-0.3293,1.5351,-1.4265,-1.9528,-1.2551,0.2327,49.27857671,-122.98366505,0.00000000,
11.0890,0.0493,0.6986,-0.0886,-0.3293,1.5351,-1.4265,-1.6228,-1.0416,0.2701,49.27857671,-122.98366505,0.00000000,
11.1070,0.0493,0.6986,-0.0886,0.1834,-0.7390,-4.7791,-1.6228,-1.0416,0.2701,49.27857671,-122.98366505,0.00000000,
11.1260,0.2523,0.3867,0.0451,0.1834,-0.7390,-4.7791,-1.6228,-1.0416,0.2701,49.27857671,-122.98366505,0.00000000,
11.1460,0.2523,0.3867,0.0451,0.1834,-0.7390,-4.7791,-0.7855,0.1857,0.0093,49.27857671,-122.98366505,0.00000000,
11.1650,0.2523,0.3867,0.0451,1.6465,-4.3497,-3.8262,-0.7855,0.1857,0.0093,49.27857671,-122.98366505,0.00000000,
11.2040,-0.0316,0.4037,0.2543,1.6465,-4.3497,-3.8262,-0.7855,0.1857,0.0093,49.27857671,-122.98366505,0.00000000,
11.2220,-0.0316,0.4037,0.2543,1.6465,-4.3497,-3.8262,-0.6009,0.7259,-0.3355,49.27857671,-122.98366505,0.00000000,
11.2410,-0.0316,0.4037,0.2543,1.8242,-5.5480,-3.3103,-0.6009,0.7259,-0.3355,49.27857671,-122.98366505,0.00000000,
11.2600,-0.4300,0.9467,1.1812,1.8242,-5.5480,-3.3103,-0.6009,0.7259,-0.3355,49.27857671,-122.98366505,0.00000000,
11.2800,-0.4300,0.9467,1.1812,1.8242,-5.5480,-3.3103,-0.1298,-1.0354,0.0236,49.27857671,-122.98366505,0.00000000,
11.2980,-0.4300,0.9467,1.1812,-3.2527,-2.3688,3.6782,-0.1298,-1.0354,0.0236,49.27857671,-122.98366505,0.00000000,
11.3360,0.3851,1.3039,0.4162,-3.2527,-2.3688,3.6782,-0.1298,-1.0354,0.0236,49.27857671,-122.98366505,0.00000000,
11.3550,0.3851,1.3039,0.4162,-3.2527,-2.3688,3.6782,-1.0011,-0.9458,0.2690,49.27857671,-122.98366505,0.00000000,
11.3730,0.3851,1.3039,0.4162,-1.3446,2.0533,3.6198,-1.0011,-0.9458,0.2690,49.27857671,-122.98366505,0.00000000,
11.3920,0.6280,0.5583,0.3002,-1.3446,2.0533,3.6198,-1.0011,-0.9458,0.2690,49.27857671,-122.98366505,0.00000000,
11.4110,0.6280,0.5583,0.3002,-1.3446,2.0533,3.6198,0.1905,1.0091,-0.2532,49.27857671,-122.98366505,0.00000000,
11.4300,0.6280,0.5583,0.3002,4.7169,3.6582,-0.8008,0.1905,1.0091,-0.2532,49.27857671,-122.98366505,0.00000000,
11.4680,-0.5173,1.4685,-0.3398,4.7169,3.6582,-0.8008,0.1905,1.0091,-0.2532,49.27857671,-122.98366505,0.00000000,
11.4880,-0.5173,1.4685,-0.3398,4.7169,3.6582,-0.8008,1.8009,1.1056,-0.4174,49.27857671,-122.98366505,0.00000000,
11.5060,-0.5173,1.4685,-0.3398,3.2312,-0.2994,-2.3235,1.8009,1.1056,-0.4174,49.27857671,-122.98366505,0.00000000,
11.5260,0.0517,0.9260,0.2912,3.2312,-0.2994,-2.3235,1.8009,1.1056,-0.4174,49.27857671,-122.98366505,0.00000000,
11.5450,0.0517,0.9260,0.2912,3.2312,-0.2994,-2.3235,1.8649,0.8020,0.3643,49.27857671,-122.98366505,0.00000000,
11.5670,0.0517,0.9260,0.2912,-4.2765,0.7120,-4.9787,1.8649,0.8020,0.3643,49.27857671,-122.98366505,0.00000000,
11.6020,-0.1590,0.9911,-0.0805,-4.2765,0.7120,-4.9787,1.8649,0.8020,0.3643,49.27857671,-122.98366505,0.00000000,
11.6210,-0.1590,0.9911,-0.0805,-4.2765,0.7120,-4.9787,2.2976,1.0418,-0.4802,49.27857671,-122.98366505,0.00000000,
11.6410,-0.1590,0.9911,-0.0805,3.0234,-0.1122,1.3831,2.2976,1.0418,-0.4802,49.27857671,-122.98366505,0.00000000,
11.6590,-0.3421,0.7663,0.0287,3.0234,-0.1122,1.3831,2.2976,1.0418,-0.4802,49.27857671,-122.98366505,0.00000000,
11.6780,-0.3421,0.7663,0.0287,3.0234,-0.1122,1.3831,1.7604,0.3044,0.1685,49.27857671,-122.98366505,0.00000000,
11.6980,-0.3421,0.7663,0.0287,-3.6439,-1.9755,0.1343,1.7604,0.3044,0.1685,49.27857671,-122.98366505,0.00000000,
11.7360,-0.0611,0.9563,0.0700,-3.6439,-1.9755,0.1343,1.7604,0.3044,0.1685,49.27857671,-122.98366505,0.00000000,
11.7550,-0.0611,0.9563,0.0700,-3.6439,-1.9755,0.1343,1.4776,0.1855,-0.0793,49.27857671,-122.98366505,0.00000000,
11.7730,-0.0611,0.9563,0.0700,-0.4532,-0.8790,2.4159,1.4776,0.1855,-0.0793,49.27857671,-122.98366505,0.00000000,
11.7930,-0.0692,0.9240,-0.0008,-0.4532,-0.8790,2.4159,1.4776,0.1855,-0.0793,49.27857671,-122.98366505,0.00000000,
11.8120,-0.0692,0.9240,-0.0008,-0.4532,-0.8790,2.4159,1.2247,0.6972,-0.1924,49.27857671,-122.98366505,0.00000000,
11.8310,-0.0692,0.9240,-0.0008,0.6800,-0.4191,3.0293,1.2247,0.6972,-0.1924,49.27857671,-122.98366505,0.00000000,
11.8680,-0.1980,0.9514,-0.0753,0.6800,-0.4191,3.0293,1.2247,0.6972,-0.1924,49.27857671,-122.98366505,0.00000000,
11.8880,-0.1980,0.9514,-0.0753,0.6800,-0.4191,3.0293,0.8867,0.5714,-0.0071,49.27857671,-122.98366505,0.00000000,
11.9060,-0.1980,0.9514,-0.0753,-0.9106,0.1514,1.4824,0.8867,0.5714,-0.0071,49.27857671,-122.98366505,0.00000000,
11.9280,-0.2945,1.3111,-0.0089,-0.9106,0.1514,1.4824,0.8867,0.5714,-0.0071,49.27857671,-122.98366505,0.00000000,
11.9460,-0.2945,1.3111,-0.0089,-0.9106,0.1514,1.4824,0.6622,0.5093,-0.0448,49.27857671,-122.98366505,0.00000000,
11.9650,-0.2945,1.3111,-0.0089,-2.0978,1.3772,3.2624,0.6622,0.5093,-0.0448,49.27857671,-122.98366505,0.00000000,
12.0020,-0.2530,1.7124,-0.2202,-2.0978,1.3772,3.2624,0.6622,0.5093,-0.0448,49.27857671,-122.98366505,0.00000000,
12.0210,-0.2530,1.7124,-0.2202,-2.0978,1.3772,3.2624,-0.9594,0.0455,0.1783,49.27857671,-122.98366505,0.00000000,
12.0330,-0.2530,1.7124,-0.2202,-1.9235,5.5565,1.7040,-0.9594,0.0455,0.1783,49.27857671,-122.98366505,0.00000000,
12.0690,-0.1842,1.2509,-0.2824,-1.9235,5.5565,1.7040,-0.9594,0.0455,0.1783,49.27857671,-122.98366505,0.00000000,
12.0880,-0.1842,1.2509,-0.2824,-1.9235,5.5565,1.7040,-3.0307,-0.9324,0.4586,49.27857671,-122.98366505,0.00000000,
12.1080,-0.1842,1.2509,-0.2824,-1.0794,4.5921,-3.8537,-3.0307,-0.9324,0.4586,49.27857671,-122.98366505,0.00000000,
12.1270,-0.3337,1.3490,-0.0088,-1.0794,4.5921,-3.8537,-3.0307,-0.9324,0.4586,49.27857671,-122.98366505,0.00000000,
12.1450,-0.3337,1.3490,-0.0088,-1.0794,4.5921,-3.8537,-2.3572,-0.9015,0.1425,49.27857671,-122.98366505,0.00000000,
12.1640,-0.3337,1.3490,-0.0088,-3.2869,3.3722,-1.7987,-2.3572,-0.9015,0.1425,49.27857671,-122.98366505,0.00000000,
12.2020,-0.0930,1.1773,-0.1391,-3.2869,3.3722,-1.7987,-2.3572,-0.9015,0.1425,49.27857671,-122.98366505,0.00000000,
12.2210,-0.0930,1.1773,-0.1391,-3.2869,3.3722,-1.7987,-2.1511,-1.9455,-0.3926,49.27857671,-122.98366505,0.00000000,
12.2410,-0.0930,1.1773,-0.1391,-0.3731,2.6782,-3.8727,-2.1511,-1.9455,-0.3926,49.27857671,-122.98366505,0.00000000,
12.2590,-0.1770,0.7742,-0.1000,-0.3731,2.6782,-3.8727,-2.1511,-1.9455,-0.3926,49.27857671,-122.98366505,0.00000000,
12.2790,-0.1770,0.7742,-0.1000,-0.3731,2.6782,-3.8727,-1.8580,-2.4644,-0.1360,49.27857671,-122.98366505,0.00000000,
12.2980,-0.1770,0.7742,-0.1000,-2.6522,-0.3568,-5.3800,-1.8580,-2.4644,-0.1360,49.27857671,-122.98366505,0.00000000,
12.3360,0.3558,0.5869,0.1085,-2.6522,-0.3568,-5.3800,-1.8580,-2.4644,-0.1360,49.27857671,-122.98366505,0.00000000,
12.3540,0.3558,0.5869,0.1085,-2.6522,-0.3568,-5.3800,-1.6920,-0.7299,-0.2678,49.27857671,-122.98366505,0.00000000,
12.3730,0.3558,0.5869,0.1085,1.8185,-2.4242,-4.7696,-1.6920,-0.7299,-0.2678,49.27857671,-122.98366505,0.00000000,
12.3920,0.1885,0.5494,0.2352,1.8185,-2.4242,-4.7696,-1.6920,-0.7299,-0.2678,49.27857671,-122.98366505,0.00000000,
12.4110,0.1885,0.5494,0.2352,1.8185,-2.4242,-4.7696,-1.3824,0.0164,-0.7303,49.27857671,-122.98366505,0.00000000,
12.4310,0.1885,0.5494,0.2352,3.8887,-2.7249,-3.8296,-1.3824,0.0164,-0.7303,49.27857671,-122.98366505,0.00000000,
12.4690,-0.1864,0.6207,0.6666,3.8887,-2.7249,-3.8296,-1.3824,0.0164,-0.7303,49.27857671,-122.98366505,0.00000000,
12.4880,-0.1864,0.6207,0.6666,3.8887,-2.7249,-3.8296,-1.1096,-0.3690,-0.4472,49.27857671,-122.98366505,0.00000000,
12.5070,-0.1864,0.6207,0.6666,-0.2052,-2.1603,-1.5140,-1.1096,-0.3690,-0.4472,49.27857671,-122.98366505,0.00000000,
12.5270,-0.1939,0.5171,0.9615,-0.2052,-2.1603,-1.5140,-1.1096,-0.3690,-0.4472,49.27857671,-122.98366505,0.00000000,
12.5450,-0.1939,0.5171,0.9615,-0.2052,-2.1603,-1.5140,0.0163,-0.7406,-0.6830,49.27857671,-122.98366505,0.00000000,
12.5670,-0.1939,0.5171,0.9615,-1.9343,-2.1055,3.1613,0.0163,-0.7406,-0.6830,49.27857671,-122.98366505,0.00000000,
12.6020,-0.2804,1.3394,0.8071,-1.9343,-2.1055,3.1613,0.0163,-0.7406,-0.6830,49.27857671,-122.98366505,0.00000000,
12.6210,-0.2804,1.3394,0.8071,-1.9343,-2.1055,3.1613,1.0443,-0.7763,0.2038,49.27857671,-122.98366505,0.00000000,
12.6400,-0.2804,1.3394,0.8071,-1.4750,-1.7876,4.5125,1.0443,-0.7763,0.2038,49.27857671,-122.98366505,0.00000000,
12.6590,1.0358,0.5508,0.1904,-1.4750,-1.7876,4.5125,1.0443,-0.7763,0.2038,49.27857671,-122.98366505,0.00000000,
12.6780,1.0358,0.5508,0.1904,-1.4750,-1.7876,4.5125,1.4246,2.3389,-0.3980,49.27857671,-122.98366505,0.00000000,
12.6980,1.0358,0.5508,0.1904,7.8417,2.9282,-1.7739,1.4246,2.3389,-0.3980,49.27857671,-122.98366505,0.00000000,
12.7360,-0.7879,1.2103,-0.1517,7.8417,2.9282,-1.7739,1.4246,2.3389,-0.3980,49.27857671,-122.98366505,0.00000000,
12.7540,-0.7879,1.2103,-0.1517,7.8417,2.9282,-1.7739,1.7731,1.2531,0.0933,49.27857671,-122.98366505,0.00000000,
12.7740,-0.7879,1.2103,-0.1517,-1.0253,0.5386,-2.3156,1.7731,1.2531,0.0933,49.27857671,-122.98366505,0.00000000,
12.7930,0.1812,0.8219,0.3258,-1.0253,0.5386,-2.3156,1.7731,1.2531,0.0933,49.27857671,-122.98366505,0.00000000,
12.8120,0.1812,0.8219,0.3258,-1.0253,0.5386,-2.3156,2.2812,1.2688,-0.0186,49.27857671,-122.98366505,0.00000000,
12.8300,0.1812,0.8219,0.3258,-0.3727,-1.0878,0.1586,2.2812,1.2688,-0.0186,49.27857671,-122.98366505,0.00000000,
12.8690,-0.5167,0.8948,-0.1287,-0.3727,-1.0878,0.1586,2.2812,1.2688,-0.0186,49.27857671,-122.98366505,0.00000000,
12.8990,-0.5167,0.8948,-0.1287,-0.3727,-1.0878,0.1586,1.9520,0.4255,-0.0097,49.27857671,-122.98366505,0.00000000,
12.9100,-0.5167,0.8948,-0.1287,-0.4413,-0.7865,-0.2787,1.9520,0.4255,-0.0097,49.27857671,-122.98366505,0.00000000,
12.9270,-0.1503,0.9340,0.0863,-0.4413,-0.7865,-0.2787,1.9520,0.4255,-0.0097,49.27857671,-122.98366505,0.00000000,
12.9440,-0.1503,0.9340,0.0863,-0.4413,-0.7865,-0.2787,1.3572,0.2506,0.1579,49.27857671,-122.98366505,0.00000000,
12.9620,-0.1503,0.9340,0.0863,-2.5889,-1.3391,0.7166,1.3572,0.2506,0.1579,49.27858802,-122.98366531,0.00000000,
13.0010,0.0814,1.0185,0.1308,-2.5889,-1.3391,0.7166,1.3572,0.2506,0.1579,49.27858802,-122.98366531,0.00000000,
13.0200,0.0814,1.0185,0.1308,-2.5889,-1.3391,0.7166,0.7649,1.1760,-0.2601,49.27858802,-122.98366531,0.00000000,
13.0320,0.0814,1.0185,0.1308,2.3891,0.8344,3.3951,0.7649,1.1760,-0.2601,49.27858802,-122.98366531,0.00000000,
13.0680,-0.1785,0.9182,-0.1204,2.3891,0.8344,3.3951,0.7649,1.1760,-0.2601,49.27858802,-122.98366531,0.00000000,
13.0860,-0.1785,0.9182,-0.1204,2.3891,0.8344,3.3951,0.5942,1.1828,-0.0624,49.27858802,-122.98366531,0.00000000,
13.1060,-0.1785,0.9182,-0.1204,1.8510,-1.1659,0.2421,0.5942,1.1828,-0.0624,49.27858802,-122.98366531,0.00000000,
13.1250,-0.5049,1.1187,0.0226,1.8510,-1.1659,0.2421,0.5942,1.1828,-0.0624,49.27858802,-122.98366531,0.00000000,
13.1430,-0.5049,1.1187,0.0226,1.8510,-1.1659,0.2421,0.8186,0.2925,0.1350,49.27858802,-122.98366531,0.00000000,
13.1630,-0.5049,1.1187,0.0226,-3.9101,0.9134,1.6105,0.8186,0.2925,0.1350,49.27858802,-122.98366531,0.00000000,
13.2010,-0.1391,1.5146,0.1271,-3.9101,0.9134,1.6105,0.8186,0.2925,0.1350,49.27858802,-122.98366531,0.00000000,
13.2210,-0.1391,1.5146,0.1271,-3.9101,0.9134,1.6105,0.2348,0.2614,0.1936,49.27858802,-122.98366531,0.00000000,
13.2390,-0.1391,1.5146,0.1271,-1.0525,3.0920,3.3145,0.2348,0.2614,0.1936,49.27858802,-122.98366531,0.00000000,
13.2590,-0.2705,1.5217,0.0903,-1.0525,3.0920,3.3145,0.2348,0.2614,0.1936,49.27858802,-122.98366531,0.00000000,
13.2770,-0.2705,1.5217,0.0903,-1.0525,3.0920,3.3145,-1.9600,-0.8551,0.5345,49.27858802,-122.98366531,0.00000000,
13.2970,-0.2705,1.5217,0.0903,-0.9560,6.5548,0.9551,-1.9600,-0.8551,0.5345,49.27858802,-122.98366531,0.00000000,
13.3350,-0.3940,1.1713,-0.2740,-0.9560,6.5548,0.9551,-1.9600,-0.8551,0.5345,49.27858802,-122.98366531,0.00000000,
13.3540,-0.3940,1.1713,-0.2740,-0.9560,6.5548,0.9551,-2.3746,-0.9219,0.2678,49.27858802,-122.98366531,0.00000000,
13.3730,-0.3940,1.1713,-0.2740,-2.5073,2.3860,-1.6087,-2.3746,-0.9219,0.2678,49.27858802,-122.98366531,0.00000000,
13.3920,0.0741,1.2397,0.1483,-2.5073,2.3860,-1.6087,-2.3746,-0.9219,0.2678,49.27858802,-122.98366531,0.00000000,
13.4110,0.0741,1.2397,0.1483,-2.5073,2.3860,-1.6087,-2.3177,-1.4844,0.4584,49.27858802,-122.98366531,0.00000000,
13.4310,0.0741,1.2397,0.1483,-1.6406,1.8062,-4.2335,-2.3177,-1.4844,0.4584,49.27858802,-122.98366531,0.00000000,
13.4680,0.0351,0.9444,-0.0754,-1.6406,1.8062,-4.2335,-2.3177,-1.4844,0.4584,49.27858802,-122.98366531,0.00000000,
13.4890,0.0351,0.9444,-0.0754,-1.6406,1.8062,-4.2335,-2.2603,-0.5493,0.3233,49.27858802,-122.98366531,0.00000000,
13.5070,0.0351,0.9444,-0.0754,1.4485,2.3795,-3.6398,-2.2603,-0.5493,0.3233,49.27858802,-122.98366531,0.00000000,
13.5240,0.1923,0.4806,0.1440,1.4485,2.3795,-3.6398,-2.2603,-0.5493,0.3233,49.27858802,-122.98366531,0.00000000,
13.5440,0.1923,0.4806,0.1440,1.4485,2.3795,-3.6398,-1.4430,0.1489,0.1984,49.27858802,-122.98366531,0.00000000,
13.5640,0.1923,0.4806,0.1440,1.2094,-2.4796,-3.6364,-1.4430,0.1489,0.1984,49.27858802,-122.98366531,0.00000000,
13.6010,-0.0384,0.3212,0.2186,1.2094,-2.4796,-3.6364,-1.4430,0.1489,0.1984,49.27858802,-122.98366531,0.00000000,
13.6190,-0.0384,0.3212,0.2186,1.2094,-2.4796,-3.6364,-0.7349,0.5381,-0.2279,49.27858802,-122.98366531,0.00000000,
13.6390,-0.0384,0.3212,0.2186,1.5457,-4.9948,-3.6000,-0.7349,0.5381,-0.2279,49.27858802,-122.98366531,0.00000000,
13.6590,-0.2372,0.4012,0.5340,1.5457,-4.9948,-3.6000,-0.7349,0.5381,-0.2279,49.27858802,-122.98366531,0.00000000,
13.6780,-0.2372,0.4012,0.5340,1.5457,-4.9948,-3.6000,0.1877,-0.4573,-0.2530,49.27858802,-122.98366531,0.00000000,
13.6960,-0.2372,0.4012,0.5340,-1.5130,-5.4968,-0.8133,0.1877,-0.4573,-0.2530,49.27858802,-122.98366531,0.00000000,
13.7350,-0.1797,1.0130,0.9669,-1.5130,-5.4968,-0.8133,0.1877,-0.4573,-0.2530,49.27858802,-122.98366531,0.00000000,
13.7540,-0.1797,1.0130,0.9669,-1.5130,-5.4968,-0.8133,0.4510,-0.6577,-0.1155,49.27858802,-122.98366531,0.00000000,
13.7730,-0.1797,1.0130,0.9669,-2.4963,-1.0119,3.6057,0.4510,-0.6577,-0.1155,49.27858802,-122.98366531,0.00000000,
13.7910,0.4857,1.2188,0.7267,-2.4963,-1.0119,3.6057,0.4510,-0.6577,-0.1155,49.27858802,-122.98366531,0.00000000,
13.8110,0.4857,1.2188,0.7267,-2.4963,-1.0119,3.6057,0.1086,-0.4845,-0.0376,49.27858802,-122.98366531,0.00000000,
13.8300,0.4857,1.2188,0.7267,3.8744,1.4839,2.1118,0.1086,-0.4845,-0.0376,49.27858802,-122.98366531,0.00000000,
13.8690,0.4282,0.7904,0.1926,3.8744,1.4839,2.1118,0.1086,-0.4845,-0.0376,49.27858802,-122.98366531,0.00000000,
13.8870,0.4282,0.7904,0.1926,3.8744,1.4839,2.1118,0.8050,1.6568,-0.1317,49.27858802,-122.98366531,0.00000000,
13.9060,0.4282,0.7904,0.1926,3.8758,1.9895,1.1232,0.8050,1.6568,-0.1317,49.27858802,-122.98366531,0.00000000,
13.9250,-0.8295,1.1546,-0.2902,3.8758,1.9895,1.1232,0.8050,1.6568,-0.1317,49.27858802,-122.98366531,0.00000000,
13.9440,-0.8295,1.1546,-0.2902,3.8758,1.9895,1.1232,1.8016,0.6306,-0.3898,49.27858802,-122.98366531,0.00000000,
13.9630,-0.8295,1.1546,-0.2902,-0.3136,0.0969,-1.9002,1.8016,0.6306,-0.3898,49.27858802,-122.98366531,0.00000000,
14.0010,0.3283,0.8920,0.2790,-0.3136,0.0969,-1.9002,1.8016,0.6306,-0.3898,49.27858802,-122.98366531,0.00000000,
14.0200,0.3283,0.8920,0.2790,-0.3136,0.0969,-1.9002,2.0955,0.9027,0.2676,49.27858802,-122.98366531,0.00000000,
14.0350,0.3283,0.8920,0.2790,-3.0541,-0.1567,-1.7893,2.0955,0.9027,0.2676,49.27858802,-122.98366531,0.00000000,
14.0700,-0.2192,0.9148,-0.1867,-3.0541,-0.1567,-1.7893,2.0955,0.9027,0.2676,49.27858802,-122.98366531,0.00000000,
14.0880,-0.2192,0.9148,-0.1867,-3.0541,-0.1567,-1.7893,2.2175,1.1215,-0.2642,49.27858802,-122.98366531,0.00000000,
14.1060,-0.2192,0.9148,-0.1867,3.6949,-0.7578,1.0582,2.2175,1.1215,-0.2642,49.27858802,-122.98366531,0.00000000,
14.1240,-0.3549,0.8186,-0.0592,3.6949,-0.7578,1.0582,2.2175,1.1215,-0.2642,49.27858802,-122.98366531,0.00000000,
14.1430,-0.3549,0.8186,-0.0592,3.6949,-0.7578,1.0582,1.5485,0.3353,0.1737,49.27858802,-122.98366531,0.00000000,
14.1620,-0.3549,0.8186,-0.0592,-3.6123,-1.6437,-0.4795,1.5485,0.3353,0.1737,49.27858802,-122.98366531,0.00000000,
14.2010,-0.0398,1.0711,0.0460,-3.6123,-1.6437,-0.4795,1.5485,0.3353,0.1737,49.27858802,-122.98366531,0.00000000,
14.2200,-0.0398,1.0711,0.0460,-3.6123,-1.6437,-0.4795,0.9183,0.3538,-0.1622,49.27858802,-122.98366531,0.00000000,
14.2390,-0.0398,1.0711,0.0460,-0.0968,0.2339,2.0795,0.9183,0.3538,-0.1622,49.27858802,-122.98366531,0.00000000,
14.2570,-0.0882,0.8439,-0.1347,-0.0968,0.2339,2.0795,0.9183,0.3538,-0.1622,49.27858802,-122.98366531,0.00000000,
14.2760,-0.0882,0.8439,-0.1347,-0.0968,0.2339,2.0795,0.8867,1.1069,-0.0397,49.27858802,-122.98366531,0.00000000,
14.2970,-0.0882,0.8439,-0.1347,0.7068,-0.2116,2.3748,0.8867,1.1069,-0.0397,49.27858802,-122.98366531,0.00000000,
14.3330,-0.3665,1.0748,-0.0797,0.7068,-0.2116,2.3748,0.8867,1.1069,-0.0397,49.27858802,-122.98366531,0.00000000,
14.3530,-0.3665,1.0748,-0.0797,0.7068,-0.2116,2.3748,0.9129,0.6192,0.0566,49.27858802,-122.98366531,0.00000000,
14.3730,-0.3665,1.0748,-0.0797,-1.8743,-0.0614,1.5349,0.9129,0.6192,0.0566,49.27858802,-122.98366531,0.00000000,
14.3910,-0.1595,1.3446,0.1104,-1.8743,-0.0614,1.5349,0.9129,0.6192,0.0566,49.27858802,-122.98366531,0.00000000,
14.4110,-0.1595,1.3446,0.1104,-1.8743,-0.0614,1.5349,0.2707,0.6417,0.0956,49.27858802,-122.98366531,0.00000000,
14.4280,-0.1595,1.3446,0.1104,-1.4999,2.7195,2.8044,0.2707,0.6417,0.0956,49.27858802,-122.98366531,0.00000000,
14.4670,-0.2623,1.6353,-0.1423,-1.4999,2.7195,2.8044,0.2707,0.6417,0.0956,49.27858802,-122.98366531,0.00000000,
14.4880,-0.2623,1.6353,-0.1423,-1.4999,2.7195,2.8044,-1.3370,0.2928,0.1327,49.27858802,-122.98366531,0.00000000,
14.5060,-0.2623,1.6353,-0.1423,-1.9888,5.5620,2.2058,-1.3370,0.2928,0.1327,49.27858802,-122.98366531,0.00000000,
14.5250,-0.3917,1.2176,-0.1017,-1.9888,5.5620,2.2058,-1.3370,0.2928,0.1327,49.27858802,-122.98366531,0.00000000,
14.5430,-0.3917,1.2176,-0.1017,-1.9888,5.5620,2.2058,-2.9298,-1.0003,0.3848,49.27858802,-122.98366531,0.00000000,
14.5630,-0.3917,1.2176,-0.1017,-2.3021,3.0915,-2.6870,-2.9298,-1.0003,0.3848,49.27858802,-122.98366531,0.00000000,
14.6010,-0.3064,1.2180,-0.2340,-2.3021,3.0915,-2.6870,-2.9298,-1.0003,0.3848,49.27858802,-122.98366531,0.00000000,
14.6190,-0.3064,1.2180,-0.2340,-2.3021,3.0915,-2.6870,-2.1017,-1.5900,-0.2676,49.27858802,-122.98366531,0.00000000,
14.6390,-0.3064,1.2180,-0.2340,-2.8467,2.8000,-2.6247,-2.1017,-1.5900,-0.2676,49.27858802,-122.98366531,0.00000000,
14.6580,-0.1188,1.1158,-0.0875,-2.8467,2.8000,-2.6247,-2.1017,-1.5900,-0.2676,49.27858802,-122.98366531,0.00000000,
14.6780,-0.1188,1.1158,-0.0875,-2.8467,2.8000,-2.6247,-1.8945,-2.8568,-0.2839,49.27858802,-122.98366531,0.00000000,
14.6960,-0.1188,1.1158,-0.0875,-1.3491,1.8872,-3.9014,-1.8945,-2.8568,-0.2839,49.27858802,-122.98366531,0.00000000,
14.7330,0.0288,0.7148,-0.0230,-1.3491,1.8872,-3.9014,-1.8945,-2.8568,-0.2839,49.27858802,-122.98366531,0.00000000,
14.7530,0.0288,0.7148,-0.0230,-1.3491,1.8872,-3.9014,-1.6566,-2.0283,0.1160,49.27858802,-122.98366531,0.00000000,
14.7720,0.0288,0.7148,-0.0230,-1.3194,-0.6875,-4.9212,-1.6566,-2.0283,0.1160,49.27858802,-122.98366531,0.00000000,
14.7920,0.3362,0.5845,0.0498,-1.3194,-0.6875,-4.9212,-1.6566,-2.0283,0.1160,49.27858802,-122.98366531,0.00000000,
14.8090,0.3362,0.5845,0.0498,-1.3194,-0.6875,-4.9212,-1.3959,-0.0871,-0.0914,49.27858802,-122.98366531,0.00000000,
14.8290,0.3362,0.5845,0.0498,3.1014,-3.1345,-4.1788,-1.3959,-0.0871,-0.0914,49.27858802,-122.98366531,0.00000000,
14.8690,0.0095,0.5379,0.3194,3.1014,-3.1345,-4.1788,-1.3959,-0.0871,-0.0914,49.27858802,-122.98366531,0.00000000,
14.8870,0.0095,0.5379,0.3194,3.1014,-3.1345,-4.1788,-0.8203,0.2246,-0.2326,49.27858802,-122.98366531,0.00000000,
14.9050,0.0095,0.5379,0.3194,1.8115,-2.8183,-2.9247,-0.8203,0.2246,-0.2326,49.27858802,-122.98366531,0.00000000,
14.9230,-0.1319,0.7175,0.6438,1.8115,-2.8183,-2.9247,-0.8203,0.2246,-0.2326,49.27858802,-122.98366531,0.00000000,
14.9420,-0.1319,0.7175,0.6438,1.8115,-2.8183,-2.9247,-0.2183,-0.0213,-0.4015,49.27858802,-122.98366531,0.00000000,
14.9610,-0.1319,0.7175,0.6438,-0.2110,-3.1914,-0.0299,-0.2183,-0.0213,-0.4015,49.27858802,-122.98366531,0.00000000,
14.9980,-0.2179,0.8622,0.9798,-0.2110,-3.1914,-0.0299,-0.2183,-0.0213,-0.4015,49.27858802,-122.98366531,0.00000000,
15.0180,-0.2179,0.8622,0.9798,-0.2110,-3.1914,-0.0299,0.0562,-0.8531,-0.5729,49.27858802,-122.98366531,0.00000000,
15.0320,-0.2179,0.8622,0.9798,-2.1965,0.9046,3.7925,0.0562,-0.8531,-0.5729,49.27858802,-122.98366531,0.00000000,
15.0680,-0.5051,1.1916,0.6210,-2.1965,0.9046,3.7925,0.0562,-0.8531,-0.5729,49.27858802,-122.98366531,0.00000000,
15.0860,-0.5051,1.1916,0.6210,-2.1965,0.9046,3.7925,0.8846,-1.0968,0.5708,49.27858802,-122.98366531,0.00000000,
15.1040,-0.5051,1.1916,0.6210,-2.1318,1.1013,5.8783,0.8846,-1.0968,0.5708,49.27858802,-122.98366531,0.00000000,
15.1230,1.1987,0.6884,0.2952,-2.1318,1.1013,5.8783,0.8846,-1.0968,0.5708,49.27858802,-122.98366531,0.00000000,
15.1420,1.1987,0.6884,0.2952,-2.1318,1.1013,5.8783,1.2551,1.9834,-0.8761,49.27858802,-122.98366531,0.00000000,
15.1610,1.1987,0.6884,0.2952,8.3875,-2.6378,-3.8625,1.2551,1.9834,-0.8761,49.27858802,-122.98366531,0.00000000,
15.2000,-0.7773,1.0857,-0.4708,8.3875,-2.6378,-3.8625,1.2551,1.9834,-0.8761,49.27858802,-122.98366531,0.00000000,
15.2190,-0.7773,1.0857,-0.4708,8.3875,-2.6378,-3.8625,1.3556,0.7260,0.4478,49.27858802,-122.98366531,0.00000000,
15.2380,-0.7773,1.0857,-0.4708,-4.1163,1.7572,-3.3266,1.3556,0.7260,0.4478,49.27858802,-122.98366531,0.00000000,
15.2580,0.3676,0.8446,0.3217,-4.1163,1.7572,-3.3266,1.3556,0.7260,0.4478,49.27858802,-122.98366531,0.00000000,
15.2770,0.3676,0.8446,0.3217,-4.1163,1.7572,-3.3266,2.4564,1.1629,-0.2128,49.27858802,-122.98366531,0.00000000,
15.2950,0.3676,0.8446,0.3217,2.7761,-0.8672,2.1047,2.4564,1.1629,-0.2128,49.27858802,-122.98366531,0.00000000,
15.3350,-0.6300,0.8875,-0.1883,2.7761,-0.8672,2.1047,2.4564,1.1629,-0.2128,49.27858802,-122.98366531,0.00000000,
15.3520,-0.6300,0.8875,-0.1883,2.7761,-0.8672,2.1047,1.9299,0.2752,-0.0586,49.27858802,-122.98366531,0.00000000,
15.3720,-0.6300,0.8875,-0.1883,-2.3260,-0.9425,-0.8259,1.9299,0.2752,-0.0586,49.27858802,-122.98366531,0.00000000,
15.3910,-0.1244,0.8900,0.0728,-2.3260,-0.9425,-0.8259,1.9299,0.2752,-0.0586,49.27858802,-122.98366531,0.00000000,
15.4090,-0.1244,0.8900,0.0728,-2.3260,-0.9425,-0.8259,1.7325,-0.2892,0.2685,49.27858802,-122.98366531,0.00000000,
15.4280,-0.1244,0.8900,0.0728,-3.0571,-1.5487,1.4270,1.7325,-0.2892,0.2685,49.27858802,-122.98366531,0.00000000,
15.4670,0.0529,0.9697,0.0217,-3.0571,-1.5487,1.4270,1.7325,-0.2892,0.2685,49.27858802,-122.98366531,0.00000000,
15.4870,0.0529,0.9697,0.0217,-3.0571,-1.5487,1.4270,1.4406,0.7009,-0.1717,49.27858802,-122.98366531,0.00000000,
15.5040,0.0529,0.9697,0.0217,1.8120,0.4779,3.3108,1.4406,0.7009,-0.1717,49.27858802,-122.98366531,0.00000000,
15.5240,-0.1544,1.0127,-0.0473,1.8120,0.4779,3.3108,1.4406,0.7009,-0.1717,49.27858802,-122.98366531,0.00000000,
15.5420,-0.1544,1.0127,-0.0473,1.8120,0.4779,3.3108,0.8689,0.7749,0.0535,49.27858802,-122.98366531,0.00000000,
15.5620,-0.1544,1.0127,-0.0473,0.4711,-0.2350,2.0850,0.8689,0.7749,0.0535,49.27858802,-122.98366531,0.00000000,
15.6010,-0.3034,1.3663,0.0654,0.4711,-0.2350,2.0850,0.8689,0.7749,0.0535,49.27858802,-122.98366531,0.00000000,
15.6190,-0.3034,1.3663,0.0654,0.4711,-0.2350,2.0850,0.1100,0.9496,0.1502,49.27858802,-122.98366531,0.00000000,
15.6380,-0.3034,1.3663,0.0654,-2.8307,2.3678,3.1082,0.1100,0.9496,0.1502,49.27858802,-122.98366531,0.00000000,
15.6570,-0.2957,1.6123,-0.2201,-2.8307,2.3678,3.1082,0.1100,0.9496,0.1502,49.27858802,-122.98366531,0.00000000,
15.6770,-0.2957,1.6123,-0.2201,-2.8307,2.3678,3.1082,-1.4233,-0.2671,-0.1568,49.27858802,-122.98366531,0.00000000,
15.6950,-0.2957,1.6123,-0.2201,-1.9145,6.4385,0.7797,-1.4233,-0.2671,-0.1568,49.27858802,-122.98366531,0.00000000,
15.7340,-0.2803,1.3224,-0.1357,-1.9145,6.4385,0.7797,-1.4233,-0.2671,-0.1568,49.27858802,-122.98366531,0.00000000,
15.7530,-0.2803,1.3224,-0.1357,-1.9145,6.4385,0.7797,-2.6268,-0.9807,0.2881,49.27858802,-122.98366531,0.00000000,
15.7710,-0.2803,1.3224,-0.1357,-2.2081,2.7135,-2.1456,-2.6268,-0.9807,0.2881,49.27858802,-122.98366531,0.00000000,
15.7910,-0.0047,1.2757,-0.2999,-2.2081,2.7135,-2.1456,-2.6268,-0.9807,0.2881,49.27858802,-122.98366531,0.00000000,
15.8090,-0.0047,1.2757,-0.2999,-2.2081,2.7135,-2.1456,-2.1327,-0.9999,-0.3762,49.27858802,-122.98366531,0.00000000,
15.8290,-0.0047,1.2757,-0.2999,-0.0080,4.0558,-4.2777,-2.1327,-0.9999,-0.3762,49.27858802,-122.98366531,0.00000000,
15.8700,-0.1232,1.0047,-0.1143,-0.0080,4.0558,-4.2777,-2.1327,-0.9999,-0.3762,49.27858802,-122.98366531,0.00000000,
15.8860,-0.1232,1.0047,-0.1143,-0.0080,4.0558,-4.2777,-2.0992,-2.1677,-0.1820,49.27858802,-122.98366531,0.00000000,
15.9100,-0.1232,1.0047,-0.1143,-0.1749,1.4261,-4.6762,-2.0992,-2.1677,-0.1820,49.27858802,-122.98366531,0.00000000,
15.9250,0.0629,0.6569,-0.0070,-0.1749,1.4261,-4.6762,-2.0992,-2.1677,-0.1820,49.27858802,-122.98366531,0.00000000,
15.9410,0.0629,0.6569,-0.0070,-0.1749,1.4261,-4.6762,-1.6434,-1.7569,0.2439,49.27858802,-122.98366531,0.00000000,
15.9610,0.0629,0.6569,-0.0070,-0.7883,-1.5545,-4.5128,-1.6434,-1.7569,0.2439,49.27859769,-122.98366751,0.00000000,
16.0000,0.4308,0.5188,0.1359,-0.7883,-1.5545,-4.5128,-1.6434,-1.7569,0.2439,49.27859769,-122.98366751,0.00000000,
16.0190,0.4308,0.5188,0.1359,-0.7883,-1.5545,-4.5128,-1.1077,0.5787,-0.1266,49.27859769,-122.98366751,0.00000000,
16.0340,0.4308,0.5188,0.1359,3.9571,-3.4188,-3.4234,-1.1077,0.5787,-0.1266,49.27859769,-122.98366751,0.00000000,
16.0680,-0.0623,0.5640,0.2565,3.9571,-3.4188,-3.4234,-1.1077,0.5787,-0.1266,49.27859769,-122.98366751,0.00000000,
16.0850,-0.0623,0.5640,0.2565,3.9571,-3.4188,-3.4234,-0.8651,0.7077,-0.5893,49.27859769,-122.98366751,0.00000000,
16.1050,-0.0623,0.5640,0.2565,3.2181,-3.2899,-3.2471,-0.8651,0.7077,-0.5893,49.27859769,-122.98366751,0.00000000,
16.1240,-0.4149,0.8067,0.8627,3.2181,-3.2899,-3.2471,-0.8651,0.7077,-0.5893,49.27859769,-122.98366751,0.00000000,
16.1420,-0.4149,0.8067,0.8627,3.2181,-3.2899,-3.2471,-0.3853,-0.1554,-0.4322,49.27859769,-122.98366751,0.00000000,
16.1610,-0.4149,0.8067,0.8627,-2.3473,-1.6869,0.4868,-0.3853,-0.1554,-0.4322,49.27859769,-122.98366751,0.00000000,
16.2010,-0.1232,0.6820,0.8135,-2.3473,-1.6869,0.4868,-0.3853,-0.1554,-0.4322,49.27859769,-122.98366751,0.00000000,
16.2170,-0.1232,0.6820,0.8135,-2.3473,-1.6869,0.4868,0.4641,-0.6336,-0.1347,49.27859769,-122.98366751,0.00000000,
16.2380,-0.1232,0.6820,0.8135,-2.7102,-0.5775,5.2977,0.4641,-0.6336,-0.1347,49.27859769,-122.98366751,0.00000000,
16.2570,0.0656,1.3613,0.6488,-2.7102,-0.5775,5.2977,0.4641,-0.6336,-0.1347,49.27859769,-122.98366751,0.00000000,
16.2760,0.0656,1.3613,0.6488,-2.7102,-0.5775,5.2977,0.4910,-0.4302,-0.0024,49.27859769,-122.98366751,0.00000000,
16.2950,0.0656,1.3613,0.6488,3.2932,-0.4197,1.1002,0.4910,-0.4302,-0.0024,49.27859769,-122.98366751,0.00000000,
16.3340,0.3624,0.6861,0.1774,3.2932,-0.4197,1.1002,0.4910,-0.4302,-0.0024,49.27859769,-122.98366751,0.00000000,
16.3520,0.3624,0.6861,0.1774,3.2932,-0.4197,1.1002,1.3626,1.2493,-0.6511,49.27859769,-122.98366751,0.00000000,
16.3720,0.3624,0.6861,0.1774,3.2940,2.2712,1.6192,1.3626,1.2493,-0.6511,49.27859769,-122.98366751,0.00000000,
16.3910,-0.3143,1.1483,-0.1652,3.2940,2.2712,1.6192,1.3626,1.2493,-0.6511,49.27859769,-122.98366751,0.00000000,
16.4080,-0.3143,1.1483,-0.1652,3.2940,2.2712,1.6192,1.2387,1.0817,0.6181,49.27859769,-122.98366751,0.00000000,
16.4280,-0.3143,1.1483,-0.1652,-1.4233,0.1467,-3.8095,1.2387,1.0817,0.6181,49.27859769,-122.98366751,0.00000000,
16.4660,0.4277,0.8488,0.2709,-1.4233,0.1467,-3.8095,1.2387,1.0817,0.6181,49.27859769,-122.98366751,0.00000000,
16.4850,0.4277,0.8488,0.2709,-1.4233,0.1467,-3.8095,2.0876,2.5724,-0.3156,49.27859769,-122.98366751,0.00000000,
16.5040,0.4277,0.8488,0.2709,6.6865,-0.3308,1.8414,2.0876,2.5724,-0.3156,49.27859769,-122.98366751,0.00000000,
16.5240,-0.9607,0.8900,-0.1993,6.6865,-0.3308,1.8414,2.0876,2.5724,-0.3156,49.27859769,-122.98366751,0.00000000,
16.5420,-0.9607,0.8900,-0.1993,6.6865,-0.3308,1.8414,1.6394,0.8466,0.1437,49.27859769,-122.98366751,0.00000000,
16.5620,-0.9607,0.8900,-0.1993,-4.3193,-0.7874,-1.2440,1.6394,0.8466,0.1437,49.27859769,-122.98366751,0.00000000,
16.5990,-0.0862,0.8592,0.0904,-4.3193,-0.7874,-1.2440,1.6394,0.8466,0.1437,49.27859769,-122.98366751,0.00000000,
16.6180,-0.0862,0.8592,0.0904,-4.3193,-0.7874,-1.2440,1.7140,-0.0737,0.2114,49.27859769,-122.98366751,0.00000000,
16.6380,-0.0862,0.8592,0.0904,-2.8958,-1.9492,1.9331,1.7140,-0.0737,0.2114,49.27859769,-122.98366751,0.00000000,
16.6560,0.0468,0.9912,-0.0324,-2.8958,-1.9492,1.9331,1.7140,-0.0737,0.2114,49.27859769,-122.98366751,0.00000000,
16.6750,0.0468,0.9912,-0.0324,-2.8958,-1.9492,1.9331,1.1928,0.7424,0.0353,49.27859769,-122.98366751,0.00000000,
16.6940,0.0468,0.9912,-0.0324,1.6182,0.5381,2.1300,1.1928,0.7424,0.0353,49.27859769,-122.98366751,0.00000000,
16.7330,-0.0603,0.9452,-0.2032,1.6182,0.5381,2.1300,1.1928,0.7424,0.0353,49.27859769,-122.98366751,0.00000000,
16.7520,-0.0603,0.9452,-0.2032,1.6182,0.5381,2.1300,0.5504,1.2388,0.0743,49.27859769,-122.98366751,0.00000000,
16.7720,-0.0603,0.9452,-0.2032,1.8779,0.0589,0.8294,0.5504,1.2388,0.0743,49.27859769,-122.98366751,0.00000000,
16.7880,-0.4484,1.0060,0.0281,1.8779,0.0589,0.8294,0.5504,1.2388,0.0743,49.27859769,-122.98366751,0.00000000,
16.8090,-0.4484,1.0060,0.0281,1.8779,0.0589,0.8294,0.6425,1.0435,-0.0980,49.27859769,-122.98366751,0.00000000,
16.8290,-0.4484,1.0060,0.0281,-1.8421,0.1689,2.4949,0.6425,1.0435,-0.0980,49.27859769,-122.98366751,0.00000000,
16.8660,-0.2151,1.3566,0.0386,-1.8421,0.1689,2.4949,0.6425,1.0435,-0.0980,49.27859769,-122.98366751,0.00000000,
16.8840,-0.2151,1.3566,0.0386,-1.8421,0.1689,2.4949,0.3173,0.5908,-0.0598,49.27859769,-122.98366751,0.00000000,
16.9040,-0.2151,1.3566,0.0386,-2.1018,1.9826,3.0055,0.3173,0.5908,-0.0598,49.27859769,-122.98366751,0.00000000,
16.9220,-0.2549,1.5833,-0.1790,-2.1018,1.9826,3.0055,0.3173,0.5908,-0.0598,49.27859769,-122.98366751,0.00000000,
16.9420,-0.2549,1.5833,-0.1790,-2.1018,1.9826,3.0055,-1.2145,-0.4062,0.1455,49.27859769,-122.98366751,0.00000000,
16.9600,-0.2549,1.5833,-0.1790,-1.7300,6.4885,0.7573,-1.2145,-0.4062,0.1455,49.27859769,-122.98366751,0.00000000,
16.9980,-0.3100,1.2635,-0.2363,-1.7300,6.4885,0.7573,-1.2145,-0.4062,0.1455,49.27859769,-122.98366751,0.00000000,
17.0180,-0.3100,1.2635,-0.2363,-1.7300,6.4885,0.7573,-2.8256,-0.8306,0.5708,49.27859769,-122.98366751,0.00000000,
17.0330,-0.3100,1.2635,-0.2363,-1.6939,3.1327,-1.3325,-2.8256,-0.8306,0.5708,49.27859769,-122.98366751,0.00000000,
17.0670,-0.2489,1.1702,-0.0757,-1.6939,3.1327,-1.3325,-2.8256,-0.8306,0.5708,49.27859769,-122.98366751,0.00000000,
17.0840,-0.2489,1.1702,-0.0757,-1.6939,3.1327,-1.3325,-2.4279,-1.3129,0.2310,49.27859769,-122.98366751,0.00000000,
17.1040,-0.2489,1.1702,-0.0757,-1.5032,2.2031,-5.1268,-2.4279,-1.3129,0.2310,49.27859769,-122.98366751,0.00000000,
17.1220,-0.0232,1.0703,-0.0873,-1.5032,2.2031,-5.1268,-2.4279,-1.3129,0.2310,49.27859769,-122.98366751,0.00000000,
17.1410,-0.0232,1.0703,-0.0873,-1.5032,2.2031,-5.1268,-2.0657,-1.5005,0.1935,49.27859769,-122.98366751,0.00000000,
17.1610,-0.0232,1.0703,-0.0873,-0.7852,1.5355,-2.1992,-2.0657,-1.5005,0.1935,49.27859769,-122.98366751,0.00000000,
17.1990,0.0699,0.6157,0.0438,-0.7852,1.5355,-2.1992,-2.0657,-1.5005,0.1935,49.27859769,-122.98366751,0.00000000,
17.2190,0.0699,0.6157,0.0438,-0.7852,1.5355,-2.1992,-1.6275,-0.8327,0.5507,49.27859769,-122.98366751,0.00000000,
17.2370,0.0699,0.6157,0.0438,-0.7900,-1.3048,-4.2211,-1.6275,-0.8327,0.5507,49.27859769,-122.98366751,0.00000000,
17.2560,0.3038,0.5435,0.0862,-0.7900,-1.3048,-4.2211,-1.6275,-0.8327,0.5507,49.27859769,-122.98366751,0.00000000,
17.2750,0.3038,0.5435,0.0862,-0.7900,-1.3048,-4.2211,-1.2250,0.7276,-0.3160,49.27859769,-122.98366751,0.00000000,
17.2940,0.3038,0.5435,0.0862,3.4387,-3.7140,-4.0294,-1.2250,0.7276,-0.3160,49.27859769,-122.98366751,0.00000000,
17.3320,-0.2079,0.4960,0.4774,3.4387,-3.7140,-4.0294,-1.2250,0.7276,-0.3160,49.27859769,-122.98366751,0.00000000,
17.3510,-0.2079,0.4960,0.4774,3.4387,-3.7140,-4.0294,-0.5827,0.2300,-0.6193,49.27859769,-122.98366751,0.00000000,
17.3700,-0.2079,0.4960,0.4774,0.9228,-3.3464,-2.0272,-0.5827,0.2300,-0.6193,49.27859769,-122.98366751,0.00000000,
17.3890,-0.3292,0.7560,1.0198,0.9228,-3.3464,-2.0272,-0.5827,0.2300,-0.6193,49.27859769,-122.98366751,0.00000000,
17.4080,-0.3292,0.7560,1.0198,0.9228,-3.3464,-2.0272,0.1775,-0.8198,-0.2673,49.27859769,-122.98366751,0.00000000,
17.4270,-0.3292,0.7560,1.0198,-2.9035,-2.6584,3.8613,0.1775,-0.8198,-0.2673,49.27859769,-122.98366751,0.00000000,
17.4650,0.0363,1.1501,0.7623,-2.9035,-2.6584,3.8613,0.1775,-0.8198,-0.2673,49.27859769,-122.98366751,0.00000000,
17.4850,0.0363,1.1501,0.7623,-2.9035,-2.6584,3.8613,0.3840,-0.7374,0.0329,49.27859769,-122.98366751,0.00000000,
17.5030,0.0363,1.1501,0.7623,0.2606,-0.5820,3.3808,0.3840,-0.7374,0.0329,49.27859769,-122.98366751,0.00000000,
17.5220,0.9046,0.7882,0.1327,0.2606,-0.5820,3.3808,0.3840,-0.7374,0.0329,49.27859769,-122.98366751,0.00000000,
17.5410,0.9046,0.7882,0.1327,0.2606,-0.5820,3.3808,1.0823,1.5423,0.0692,49.27859769,-122.98366751,0.00000000,
17.5600,0.9046,0.7882,0.1327,3.3818,3.1935,0.0608,1.0823,1.5423,0.0692,49.27859769,-122.98366751,0.00000000,
17.5990,-1.0241,1.1755,-0.4061,3.3818,3.1935,0.0608,1.0823,1.5423,0.0692,49.27859769,-122.98366751,0.00000000,
17.6190,-1.0241,1.1755,-0.4061,3.3818,3.1935,0.0608,2.1824,0.9070,-0.4949,49.27859769,-122.98366751,0.00000000,
17.6370,-1.0241,1.1755,-0.4061,2.9356,-0.6034,-0.4862,2.1824,0.9070,-0.4949,49.27859769,-122.98366751,0.00000000,
17.6550,0.4280,0.8315,0.3315,2.9356,-0.6034,-0.4862,2.1824,0.9070,-0.4949,49.27859769,-122.98366751,0.00000000,
17.6740,0.4280,0.8315,0.3315,2.9356,-0.6034,-0.4862,1.8490,1.0494,0.4369,49.27859769,-122.98366751,0.00000000,
17.6940,0.4280,0.8315,0.3315,-4.8456,-0.5755,-3.6922,1.8490,1.0494,0.4369,49.27859769,-122.98366751,0.00000000,
17.7310,-0.2864,0.9115,-0.2720,-4.8456,-0.5755,-3.6922,1.8490,1.0494,0.4369,49.27859769,-122.98366751,0.00000000,
17.7520,-0.2864,0.9115,-0.2720,-4.8456,-0.5755,-3.6922,2.1538,1.4133,-0.4986,49.27859769,-122.98366751,0.00000000,
17.7700,-0.2864,0.9115,-0.2720,4.9640,-1.0366,2.6132,2.1538,1.4133,-0.4986,49.27859769,-122.98366751,0.00000000,
17.7880,-0.4546,0.8193,-0.1181,4.9640,-1.0366,2.6132,2.1538,1.4133,-0.4986,49.27859769,-122.98366751,0.00000000,
17.8070,-0.4546,0.8193,-0.1181,4.9640,-1.0366,2.6132,1.3040,0.0684,0.3076,49.27859769,-122.98366751,0.00000000,
17.8270,-0.4546,0.8193,-0.1181,-5.0097,-1.6644,-1.3746,1.3040,0.0684,0.3076,49.27859769,-122.98366751,0.00000000,
17.8650,0.0146,1.0827,-0.0122,-5.0097,-1.6644,-1.3746,1.3040,0.0684,0.3076,49.27859769,-122.98366751,0.00000000,
17.8830,0.0146,1.0827,-0.0122,-5.0097,-1.6644,-1.3746,1.0085,0.1642,-0.1717,49.27859769,-122.98366751,0.00000000,
17.9010,0.0146,1.0827,-0.0122,0.5867,0.6414,2.2582,1.0085,0.1642,-0.1717,49.27859769,-122.98366751,0.00000000,
17.9220,-0.0490,0.9285,-0.1049,0.5867,0.6414,2.2582,1.0085,0.1642,-0.1717,49.27859769,-122.98366751,0.00000000,
17.9390,-0.0490,0.9285,-0.1049,0.5867,0.6414,2.2582,0.6409,1.1908,0.0008,49.27859769,-122.98366751,0.00000000,
17.9600,-0.0490,0.9285,-0.1049,1.0851,0.2882,2.3391,0.6409,1.1908,0.0008,49.27859769,-122.98366751,0.00000000,
17.9980,-0.3091,0.9514,-0.1155,1.0851,0.2882,2.3391,0.6409,1.1908,0.0008,49.27859769,-122.98366751,0.00000000,
18.0170,-0.3091,0.9514,-0.1155,1.0851,0.2882,2.3391,0.8336,0.7259,0.0750,49.27859769,-122.98366751,0.00000000,
18.0330,-0.3091,0.9514,-0.1155,-1.3219,-0.0958,1.1808,0.8336,0.7259,0.0750,49.27859769,-122.98366751,0.00000000,
18.0630,-0.1841,1.3029,0.0270,-1.3219,-0.0958,1.1808,0.8336,0.7259,0.0750,49.27859769,-122.98366751,0.00000000,
18.0820,-0.1841,1.3029,0.0270,-1.3219,-0.0958,1.1808,0.5411,0.3955,-0.0416,49.27859769,-122.98366751,0.00000000,
18.1010,-0.1841,1.3029,0.0270,-1.9555,1.9885,3.0556,0.5411,0.3955,-0.0416,49.27859769,-122.98366751,0.00000000,
18.1200,-0.2842,1.5953,-0.2208,-1.9555,1.9885,3.0556,0.5411,0.3955,-0.0416,49.27859769,-122.98366751,0.00000000,
18.1400,-0.2842,1.5953,-0.2208,-1.9555,1.9885,3.0556,-0.8477,0.0289,0.0626,49.27859769,-122.98366751,0.00000000,
18.1580,-0.2842,1.5953,-0.2208,-1.1821,5.2735,1.9963,-0.8477,0.0289,0.0626,49.27859769,-122.98366751,0.00000000,
18.1970,-0.3384,1.2979,-0.1706,-1.1821,5.2735,1.9963,-0.8477,0.0289,0.0626,49.27859769,-122.98366751,0.00000000,
18.2160,-0.3384,1.2979,-0.1706,-1.1821,5.2735,1.9963,-2.8045,-0.7540,0.4563,49.27859769,-122.98366751,0.00000000,
18.2350,-0.3384,1.2979,-0.1706,-2.5331,3.8978,-2.1421,-2.8045,-0.7540,0.4563,49.27859769,-122.98366751,0.00000000,
18.2540,-0.1757,1.2084,-0.3403,-2.5331,3.8978,-2.1421,-2.8045,-0.7540,0.4563,49.27859769,-122.98366751,0.00000000,
18.2730,-0.1757,1.2084,-0.3403,-2.5331,3.8978,-2.1421,-2.6192,-0.9662,0.1888,49.27859769,-122.98366751,0.00000000,
18.2930,-0.1757,1.2084,-0.3403,-1.3454,2.7220,-4.6257,-2.6192,-0.9662,0.1888,49.27859769,-122.98366751,0.00000000,
18.3320,-0.1044,1.0274,0.0218,-1.3454,2.7220,-4.6257,-2.6192,-0.9662,0.1888,49.27859769,-122.98366751,0.00000000,
18.3510,-0.1044,1.0274,0.0218,-1.3454,2.7220,-4.6257,-1.9596,-1.9356,0.2228,49.27859769,-122.98366751,0.00000000,
18.3690,-0.1044,1.0274,0.0218,-1.8053,0.8795,-2.3190,-1.9596,-1.9356,0.2228,49.27859769,-122.98366751,0.00000000,
18.3880,-0.0417,0.7399,-0.0686,-1.8053,0.8795,-2.3190,-1.9596,-1.9356,0.2228,49.27859769,-122.98366751,0.00000000,
18.4070,-0.0417,0.7399,-0.0686,-1.8053,0.8795,-2.3190,-1.7163,-1.5328,0.2128,49.27859769,-122.98366751,0.00000000,
18.4260,-0.0417,0.7399,-0.0686,-0.8531,-0.5590,-4.6598,-1.7163,-1.5328,0.2128,49.27859769,-122.98366751,0.00000000,
18.4640,0.2950,0.5381,0.0950,-0.8531,-0.5590,-4.6598,-1.7163,-1.5328,0.2128,49.27859769,-122.98366751,0.00000000,
18.4840,0.2950,0.5381,0.0950,-0.8531,-0.5590,-4.6598,-1.2536,-0.0168,-0.2546,49.27859769,-122.98366751,0.00000000,
18.5020,0.2950,0.5381,0.0950,2.0422,-3.1998,-3.6050,-1.2536,-0.0168,-0.2546,49.27859769,-122.98366751,0.00000000,
18.5210,-0.0520,0.5543,0.3121,2.0422,-3.1998,-3.6050,-1.2536,-0.0168,-0.2546,49.27859769,-122.98366751,0.00000000,
18.5400,-0.0520,0.5543,0.3121,2.0422,-3.1998,-3.6050,-0.7576,0.3220,-0.5748,49.27859769,-122.98366751,0.00000000,
18.5590,-0.0520,0.5543,0.3121,1.9331,-3.5972,-2.4185,-0.7576,0.3220,-0.5748,49.27859769,-122.98366751,0.00000000,
18.5970,-0.2017,0.7881,0.8535,1.9331,-3.5972,-2.4185,-0.7576,0.3220,-0.5748,49.27859769,-122.98366751,0.00000000,
18.6160,-0.2017,0.7881,0.8535,1.9331,-3.5972,-2.4185,-0.2419,-0.4210,-0.2296,49.27859769,-122.98366751,0.00000000,
18.6360,-0.2017,0.7881,0.8535,-1.5855,-2.3939,1.3293,-0.2419,-0.4210,-0.2296,49.27859769,-122.98366751,0.00000000,
18.6540,-0.1942,1.0891,0.9592,-1.5855,-2.3939,1.3293,-0.2419,-0.4210,-0.2296,49.27859769,-122.98366751,0.00000000,
18.6740,-0.1942,1.0891,0.9592,-1.5855,-2.3939,1.3293,-0.0118,-0.9968,-0.6806,49.27859769,-122.98366751,0.00000000,
18.6930,-0.1942,1.0891,0.9592,-1.2621,0.9426,5.6252,-0.0118,-0.9968,-0.6806,49.27859769,-122.98366751,0.00000000,
18.7330,0.4928,0.6318,-0.1050,-1.2621,0.9426,5.6252,-0.0118,-0.9968,-0.6806,49.27859769,-122.98366751,0.00000000,
18.7500,0.4928,0.6318,-0.1050,-1.2621,0.9426,5.6252,0.4153,-0.3037,1.3969,49.27859769,-122.98366751,0.00000000,
18.7690,0.4928,0.6318,-0.1050,-3.6247,-0.2576,0.7604,0.4153,-0.3037,1.3969,49.27859769,-122.98366751,0.00000000,
18.7880,-0.0284,1.1085,0.3310,-3.6247,-0.2576,0.7604,0.4153,-0.3037,1.3969,49.27859769,-122.98366751,0.00000000,
18.8070,-0.0284,1.1085,0.3310,-3.6247,-0.2576,0.7604,2.3004,2.1645,-1.4169,49.27859769,-122.98366751,0.00000000,
18.8280,-0.0284,1.1085,0.3310,12.6448,-0.3311,1.5460,2.3004,2.1645,-1.4169,49.27859769,-122.98366751,0.00000000,
18.8650,-0.6731,0.8878,-0.1071,12.6448,-0.3311,1.5460,2.3004,2.1645,-1.4169,49.27859769,-122.98366751,0.00000000,
18.8840,-0.6731,0.8878,-0.1071,12.6448,-0.3311,1.5460,1.4815,-0.4725,0.7820,49.27859769,-122.98366751,0.00000000,
18.9060,-0.6731,0.8878,-0.1071,-10.9534,-0.5459,-6.5423,1.4815,-0.4725,0.7820,49.27859769,-122.98366751,0.00000000,
18.9210,0.5370,0.9822,0.1140,-10.9534,-0.5459,-6.5423,1.4815,-0.4725,0.7820,49.27859769,-122.98366751,0.00000000,
18.9390,0.5370,0.9822,0.1140,-10.9534,-0.5459,-6.5423,2.3142,0.6524,-0.3673,49.27859769,-122.98366751,0.00000000,
18.9590,0.5370,0.9822,0.1140,5.8986,-0.6190,2.7105,2.3142,0.6524,-0.3673,49.27860771,-122.98366312,0.00000000,
18.9970,-0.5036,0.8702,-0.2327,5.8986,-0.6190,2.7105,2.3142,0.6524,-0.3673,49.27860771,-122.98366312,0.00000000,
19.0170,-0.5036,0.8702,-0.2327,5.8986,-0.6190,2.7105,1.7044,0.1091,-0.0839,49.27860771,-122.98366312,0.00000000,
19.0330,-0.5036,0.8702,-0.2327,-0.9492,-0.2543,-0.8071,1.7044,0.1091,-0.0839,49.27860771,-122.98366312,0.00000000,
19.0640,-0.0660,0.9463,0.0533,-0.9492,-0.2543,-0.8071,1.7044,0.1091,-0.0839,49.27860771,-122.98366312,0.00000000,
19.0830,-0.0660,0.9463,0.0533,-0.9492,-0.2543,-0.8071,1.6005,-0.2404,-0.0383,49.27860771,-122.98366312,0.00000000,
19.1030,-0.0660,0.9463,0.0533,-2.6090,-1.1352,1.3052,1.6005,-0.2404,-0.0383,49.27860771,-122.98366312,0.00000000,
19.1220,-0.0150,0.9080,-0.0695,-2.6090,-1.1352,1.3052,1.6005,-0.2404,-0.0383,49.27860771,-122.98366312,0.00000000,
19.1400,-0.0150,0.9080,-0.0695,-2.6090,-1.1352,1.3052,1.4715,0.5808,-0.2059,49.27860771,-122.98366312,0.00000000,
19.1590,-0.0150,0.9080,-0.0695,1.3739,0.3389,3.1611,1.4715,0.5808,-0.2059,49.27860771,-122.98366312,0.00000000,
19.1980,-0.1594,0.9762,-0.0589,1.3739,0.3389,3.1611,1.4715,0.5808,-0.2059,49.27860771,-122.98366312,0.00000000,
19.2160,-0.1594,0.9762,-0.0589,1.3739,0.3389,3.1611,0.8834,0.6388,0.0619,49.27860771,-122.98366312,0.00000000,
19.2350,-0.1594,0.9762,-0.0589,0.2106,0.0394,1.9053,0.8834,0.6388,0.0619,49.27860771,-122.98366312,0.00000000,
19.2550,-0.3732,1.3952,-0.0098,0.2106,0.0394,1.9053,0.8834,0.6388,0.0619,49.27860771,-122.98366312,0.00000000,
19.2740,-0.3732,1.3952,-0.0098,0.2106,0.0394,1.9053,0.4135,0.6545,-0.0299,49.27860771,-122.98366312,0.00000000,
19.2920,-0.3732,1.3952,-0.0098,-2.9979,1.7945,3.9197,0.4135,0.6545,-0.0299,49.27860771,-122.98366312,0.00000000,
19.3310,-0.1926,1.6147,-0.3411,-2.9979,1.7945,3.9197,0.4135,0.6545,-0.0299,49.27860771,-122.98366312,0.00000000,
19.3500,-0.1926,1.6147,-0.3411,-2.9979,1.7945,3.9197,-0.8225,-0.3849,-0.0339,49.27860771,-122.98366312,0.00000000,
19.3680,-0.1926,1.6147,-0.3411,-1.9890,6.6923,0.1588,-0.8225,-0.3849,-0.0339,49.27860771,-122.98366312,0.00000000,
19.3880,-0.2990,1.2732,-0.1423,-1.9890,6.6923,0.1588,-0.8225,-0.3849,-0.0339,49.27860771,-122.98366312,0.00000000,
19.4080,-0.2990,1.2732,-0.1423,-1.9890,6.6923,0.1588,-2.5806,-0.7142,0.1244,49.27860771,-122.98366312,0.00000000,
19.4260,-0.2990,1.2732,-0.1423,-1.4191,3.9027,-0.9901,-2.5806,-0.7142,0.1244,49.27860771,-122.98366312,0.00000000,
19.4640,-0.1470,1.2751,-0.3758,-1.4191,3.9027,-0.9901,-2.5806,-0.7142,0.1244,49.27860771,-122.98366312,0.00000000,
19.4830,-0.1470,1.2751,-0.3758,-1.4191,3.9027,-0.9901,-2.4944,-1.3333,0.0842,49.27860771,-122.98366312,0.00000000,
19.5020,-0.1470,1.2751,-0.3758,-0.8952,3.2698,-4.4820,-2.4944,-1.3333,0.0842,49.27860771,-122.98366312,0.00000000,
19.5210,0.0383,1.0524,-0.0556,-0.8952,3.2698,-4.4820,-2.4944,-1.3333,0.0842,49.27860771,-122.98366312,0.00000000,
19.5400,0.0383,1.0524,-0.0556,-0.8952,3.2698,-4.4820,-2.4249,-1.9190,0.3488,49.27860771,-122.98366312,0.00000000,
19.5590,0.0383,1.0524,-0.0556,-0.4306,1.0042,-4.0366,-2.4249,-1.9190,0.3488,49.27860771,-122.98366312,0.00000000,
19.5990,0.0233,0.7002,-0.0066,-0.4306,1.0042,-4.0366,-2.4249,-1.9190,0.3488,49.27860771,-122.98366312,0.00000000,
19.6170,0.0233,0.7002,-0.0066,-0.4306,1.0042,-4.0366,-2.0820,-1.0078,0.6492,49.27860771,-122.98366312,0.00000000,
19.6350,0.0233,0.7002,-0.0066,-0.1005,-0.5683,-3.8369,-2.0820,-1.0078,0.6492,49.27860771,-122.98366312,0.00000000,
19.6540,0.4246,0.5742,0.0822,-0.1005,-0.5683,-3.8369,-2.0820,-1.0078,0.6492,49.27860771,-122.98366312,0.00000000,
19.6720,0.4246,0.5742,0.0822,-0.1005,-0.5683,-3.8369,-1.5721,0.9531,0.0441,49.27860771,-122.98366312,0.00000000,
19.6920,0.4246,0.5742,0.0822,2.9901,-3.1975,-4.0992,-1.5721,0.9531,0.0441,49.27860771,-122.98366312,0.00000000,
19.7300,-0.0974,0.4738,0.2252,2.9901,-3.1975,-4.0992,-1.5721,0.9531,0.0441,49.27860771,-122.98366312,0.00000000,
19.7490,-0.0974,0.4738,0.2252,2.9901,-3.1975,-4.0992,-0.8478,0.8395,-1.0021,49.27860771,-122.98366312,0.00000000,
19.7680,-0.0974,0.4738,0.2252,3.2030,-2.9819,-3.2747,-0.8478,0.8395,-1.0021,49.27860771,-122.98366312,0.00000000,
19.7880,-0.5593,0.5276,0.9615,3.2030,-2.9819,-3.2747,-0.8478,0.8395,-1.0021,49.27860771,-122.98366312,0.00000000,
19.8080,-0.5593,0.5276,0.9615,3.2030,-2.9819,-3.2747,0.2748,-0.8182,-0.5083,49.27860771,-122.98366312,0.00000000,
19.8250,-0.5593,0.5276,0.9615,-3.6150,-4.9984,1.2204,0.2748,-0.8182,-0.5083,49.27860771,-122.98366312,0.00000000,
19.8640,-0.0061,0.9317,0.8712,-3.6150,-4.9984,1.2204,0.2748,-0.8182,-0.5083,49.27860771,-122.98366312,0.00000000,
19.8820,-0.0061,0.9317,0.8712,-3.6150,-4.9984,1.2204,0.5123,-0.4885,-0.1301,49.27860771,-122.98366312,0.00000000,
19.9010,-0.0061,0.9317,0.8712,-3.7278,-0.9285,6.6391,0.5123,-0.4885,-0.1301,49.27860771,-122.98366312,0.00000000,
19.9200,0.3885,1.1548,0.2962,-3.7278,-0.9285,6.6391,0.5123,-0.4885,-0.1301,49.27860771,-122.98366312,0.00000000,
19.9380,0.3885,1.1548,0.2962,-3.7278,-0.9285,6.6391,0.6209,0.0331,0.5795,49.27860771,-122.98366312,0.00000000,
19.9590,0.3885,1.1548,0.2962,2.3098,3.9548,1.2011,0.6209,0.0331,0.5795,49.27860771,-122.98366312,0.00000000,
19.9980,-0.0217,0.9676,-0.0186,2.3098,3.9548,1.2011,0.6209,0.0331,0.5795,49.27860771,-122.98366312,0.00000000,
20.0160,-0.0217,0.9676,-0.0186,2.3098,3.9548,1.2011,1.8405,1.6856,-0.6595,49.27860771,-122.98366312,0.00000000,
20.0330,-0.0217,0.9676,-0.0186,8.0303,-2.4084,-0.4916,1.8405,1.6856,-0.6595,49.27860771,-122.98366312,0.00000000,
20.0630,-0.2849,0.9966,-0.0939,8.0303,-2.4084,-0.4916,1.8405,1.6856,-0.6595,49.27860771,-122.98366312,0.00000000,
20.0830,-0.2849,0.9966,-0.0939,8.0303,-2.4084,-0.4916,1.3844,0.6770,0.7218,49.27860771,-122.98366312,0.00000000,
20.1020,-0.2849,0.9966,-0.0939,-6.2524,1.8893,-5.1176,1.3844,0.6770,0.7218,49.27860771,-122.98366312,0.00000000,
20.1200,0.1215,0.9377,0.0234,-6.2524,1.8893,-5.1176,1.3844,0.6770,0.7218,49.27860771,-122.98366312,0.00000000,
20.1390,0.1215,0.9377,0.0234,-6.2524,1.8893,-5.1176,2.3192,1.6474,-0.3479,49.27860771,-122.98366312,0.00000000,
20.1580,0.1215,0.9377,0.0234,5.4021,-0.7729,3.0193,2.3192,1.6474,-0.3479,49.27860771,-122.98366312,0.00000000,
20.1980,-0.5178,0.8417,-0.0929,5.4021,-0.7729,3.0193,2.3192,1.6474,-0.3479,49.27860771,-122.98366312,0.00000000,
20.2150,-0.5178,0.8417,-0.0929,5.4021,-0.7729,3.0193,1.7304,0.4932,0.2280,49.27860771,-122.98366312,0.00000000,
20.2350,-0.5178,0.8417,-0.0929,-3.0695,-0.5786,-0.8685,1.7304,0.4932,0.2280,49.27860771,-122.98366312,0.00000000,
20.2530,-0.2441,0.9333,-0.0651,-3.0695,-0.5786,-0.8685,1.7304,0.4932,0.2280,49.27860771,-122.98366312,0.00000000,
20.2720,-0.2441,0.9333,-0.0651,-3.0695,-0.5786,-0.8685,1.3832,-1.1484,0.1785,49.27860771,-122.98366312,0.00000000,
20.2910,-0.2441,0.9333,-0.0651,-3.1911,-1.6450,1.3390,1.3832,-1.1484,0.1785,49.27860771,-122.98366312,0.00000000,
20.3290,0.1620,0.9672,0.1351,-3.1911,-1.6450,1.3390,1.3832,-1.1484,0.1785,49.27860771,-122.98366312,0.00000000,
20.3470,0.1620,0.9672,0.1351,-3.1911,-1.6450,1.3390,1.2165,0.6217,-0.1235,49.27860771,-122.98366312,0.00000000,
20.3670,0.1620,0.9672,0.1351,1.5588,0.7680,3.3226,1.2165,0.6217,-0.1235,49.27860771,-122.98366312,0.00000000,
20.3860,-0.2618,0.9894,-0.0372,1.5588,0.7680,3.3226,1.2165,0.6217,-0.1235,49.27860771,-122.98366312,0.00000000,
20.4050,-0.2618,0.9894,-0.0372,1.5588,0.7680,3.3226,0.6896,0.8892,0.1753,49.27860771,-122.98366312,0.00000000,
20.4230,-0.2618,0.9894,-0.0372,0.9423,0.6023,3.2718,0.6896,0.8892,0.1753,49.27860771,-122.98366312,0.00000000,
20.4610,-0.4833,1.5244,0.0802,0.9423,0.6023,3.2718,0.6896,0.8892,0.1753,49.27860771,-122.98366312,0.00000000,
20.4800,-0.4833,1.5244,0.0802,0.9423,0.6023,3.2718,0.0067,0.4237,0.0680,49.27860771,-122.98366312,0.00000000,
20.5000,-0.4833,1.5244,0.0802,-3.8933,1.9823,3.2652,0.0067,0.4237,0.0680,49.27860771,-122.98366312,0.00000000,
20.5180,-0.1432,1.5738,-0.2975,-3.8933,1.9823,3.2652,0.0067,0.4237,0.0680,49.27860771,-122.98366312,0.00000000,
20.5380,-0.1432,1.5738,-0.2975,-3.8933,1.9823,3.2652,-2.0809,-0.6858,0.1816,49.27860771,-122.98366312,0.00000000,
20.5580,-0.1432,1.5738,-0.2975,-2.9071,7.2581,-0.9064,-2.0809,-0.6858,0.1816,49.27860771,-122.98366312,0.00000000,
20.5970,0.0181,1.3659,-0.3322,-2.9071,7.2581,-0.9064,-2.0809,-0.6858,0.1816,49.27860771,-122.98366312,0.00000000,
20.6150,0.0181,1.3659,-0.3322,-2.9071,7.2581,-0.9064,-3.0047,-0.3915,0.2280,49.27860771,-122.98366312,0.00000000,
20.6340,0.0181,1.3659,-0.3322,0.6379,2.8301,-3.5516,-3.0047,-0.3915,0.2280,49.27860771,-122.98366312,0.00000000,
20.6530,-0.0932,1.1890,-0.0244,0.6379,2.8301,-3.5516,-3.0047,-0.3915,0.2280,49.27860771,-122.98366312,0.00000000,
20.6710,-0.0932,1.1890,-0.0244,0.6379,2.8301,-3.5516,-2.2296,-1.3558,-0.1760,49.27860771,-122.98366312,0.00000000,
20.6910,-0.0932,1.1890,-0.0244,0.3830,3.6915,-4.4750,-2.2296,-1.3558,-0.1760,49.27860771,-122.98366312,0.00000000,
20.7280,-0.0681,0.8363,-0.2023,0.3830,3.6915,-4.4750,-2.2296,-1.3558,-0.1760,49.27860771,-122.98366312,0.00000000,
20.7490,-0.0681,0.8363,-0.2023,0.3830,3.6915,-4.4750,-2.0582,-1.7735,0.2020,49.27860771,-122.98366312,0.00000000,
20.7680,-0.0681,0.8363,-0.2023,-0.7471,1.0189,-4.1269,-2.0582,-1.7735,0.2020,49.27860771,-122.98366312,0.00000000,
20.7880,0.2457,0.4389,0.0928,-0.7471,1.0189,-4.1269,-2.0582,-1.7735,0.2020,49.27860771,-122.98366312,0.00000000,
20.8050,0.2457,0.4389,0.0928,-0.7471,1.0189,-4.1269,-1.3329,-0.9936,0.4432,49.27860771,-122.98366312,0.00000000,
20.8240,0.2457,0.4389,0.0928,0.0403,-3.6374,-4.3075,-1.3329,-0.9936,0.4432,49.27860771,-122.98366312,0.00000000,
20.8630,0.4162,0.5070,0.1671,0.0403,-3.6374,-4.3075,-1.3329,-0.9936,0.4432,49.27860771,-122.98366312,0.00000000,
20.8810,0.4162,0.5070,0.1671,0.0403,-3.6374,-4.3075,-0.7813,1.3879,-0.5284,49.27860771,-122.98366312,0.00000000,
20.9000,0.4162,0.5070,0.1671,5.1215,-4.3636,-3.2122,-0.7813,1.3879,-0.5284,49.27860771,-122.98366312,0.00000000,
20.9190,-0.2597,0.5998,0.8409,5.1215,-4.3636,-3.2122,-0.7813,1.3879,-0.5284,49.27860771,-122.98366312,0.00000000,
20.9370,-0.2597,0.5998,0.8409,5.1215,-4.3636,-3.2122,-0.3593,0.7138,-0.6750,49.27860771,-122.98366312,0.00000000,
20.9580,-0.2597,0.5998,0.8409,1.9546,-3.2908,-0.2115,-0.3593,0.7138,-0.6750,49.27860771,-122.98366312,0.00000000,
20.9970,-0.4406,0.7156,0.8163,1.9546,-3.2908,-0.2115,-0.3593,0.7138,-0.6750,49.27860771,-122.98366312,0.00000000,
21.0150,-0.4406,0.7156,0.8163,1.9546,-3.2908,-0.2115,0.4254,-0.7500,0.2793,49.27860771,-122.98366312,0.00000000,
21.0340,-0.4406,0.7156,0.8163,-5.5546,-1.6311,8.0823,0.4254,-0.7500,0.2793,49.27860771,-122.98366312,0.00000000,
21.0520,0.3967,1.3975,0.5528,-5.5546,-1.6311,8.0823,0.4254,-0.7500,0.2793,49.27860771,-122.98366312,0.00000000,
21.0710,0.3967,1.3975,0.5528,-5.5546,-1.6311,8.0823,0.6835,0.1405,0.4565,49.27860771,-122.98366312,0.00000000,
21.0900,0.3967,1.3975,0.5528,1.1490,1.9796,1.9778,0.6835,0.1405,0.4565,49.27860771,-122.98366312,0.00000000,
21.1300,0.2734,0.8149,-0.0800,1.1490,1.9796,1.9778,0.6835,0.1405,0.4565,49.27860771,-122.98366312,0.00000000,
21.1490,0.2734,0.8149,-0.0800,1.1490,1.9796,1.9778,1.7351,2.2504,-1.0330,49.27860771,-122.98366312,0.00000000,
21.1680,0.2734,0.8149,-0.0800,9.5127,-1.5903,-2.1654,1.7351,2.2504,-1.0330,49.27860771,-122.98366312,0.00000000,
21.1870,-0.5455,1.0279,-0.2647,9.5127,-1.5903,-2.1654,1.7351,2.2504,-1.0330,49.27860771,-122.98366312,0.00000000,
21.2050,-0.5455,1.0279,-0.2647,9.5127,-1.5903,-2.1654,1.2792,0.5300,0.8459,49.27860771,-122.98366312,0.00000000,
21.2240,-0.5455,1.0279,-0.2647,-7.8154,2.6159,-5.2945,1.2792,0.5300,0.8459,49.27860771,-122.98366312,0.00000000,
21.2620,0.1435,0.9441,0.1852,-7.8154,2.6159,-5.2945,1.2792,0.5300,0.8459,49.27860771,-122.98366312,0.00000000,
21.2820,0.1435,0.9441,0.1852,-7.8154,2.6159,-5.2945,2.4426,1.5760,-0.5743,49.27860771,-122.98366312,0.00000000,
21.3010,0.1435,0.9441,0.1852,5.8363,-0.9301,4.0558,2.4426,1.5760,-0.5743,49.27860771,-122.98366312,0.00000000,
21.3200,-0.5282,0.7722,-0.1890,5.8363,-0.9301,4.0558,2.4426,1.5760,-0.5743,49.27860771,-122.98366312,0.00000000,
21.3390,-0.5282,0.7722,-0.1890,5.8363,-0.9301,4.0558,1.6012,0.1061,0.1181,49.27860771,-122.98366312,0.00000000,
21.3580,-0.5282,0.7722,-0.1890,-4.2168,-0.7637,-1.8117,1.6012,0.1061,0.1181,49.27860771,-122.98366312,0.00000000,
21.3950,-0.0054,1.0167,0.0293,-4.2168,-0.7637,-1.8117,1.6012,0.1061,0.1181,49.27860771,-122.98366312,0.00000000,
21.4140,-0.0054,1.0167,0.0293,-4.2168,-0.7637,-1.8117,1.3108,-0.0140,-0.0161,49.27860771,-122.98366312,0.00000000,
21.4340,-0.0054,1.0167,0.0293,0.0036,-0.9993,1.6702,1.3108,-0.0140,-0.0161,49.27860771,-122.98366312,0.00000000,
21.4520,-0.0676,0.9524,-0.0060,0.0036,-0.9993,1.6702,1.3108,-0.0140,-0.0161,49.27860771,-122.98366312,0.00000000,
21.4720,-0.0676,0.9524,-0.0060,0.0036,-0.9993,1.6702,0.9282,0.8719,-0.1155,49.27860771,-122.98366312,0.00000000,
21.4900,-0.0676,0.9524,-0.0060,0.9499,0.7968,3.0144,0.9282,0.8719,-0.1155,49.27860771,-122.98366312,0.00000000,
21.5280,-0.2307,0.9397,-0.1309,0.9499,0.7968,3.0144,0.9282,0.8719,-0.1155,49.27860771,-122.98366312,0.00000000,
21.5480,-0.2307,0.9397,-0.1309,0.9499,0.7968,3.0144,0.8860,0.9095,-0.0142,49.27860771,-122.98366312,0.00000000,
21.5690,-0.2307,0.9397,-0.1309,-0.0025,-0.2250,1.9493,0.8860,0.9095,-0.0142,49.27860771,-122.98366312,0.00000000,
21.5870,-0.2553,1.0866,-0.0983,-0.0025,-0.2250,1.9493,0.8860,0.9095,-0.0142,49.27860771,-122.98366312,0.00000000,
21.6040,-0.2553,1.0866,-0.0983,-0.0025,-0.2250,1.9493,0.7692,0.7007,0.0491,49.27860771,-122.98366312,0.00000000,
21.6230,-0.2553,1.0866,-0.0983,-2.0864,0.5383,2.3179,0.7692,0.7007,0.0491,49.27860771,-122.98366312,0.00000000,
21.6610,-0.1760,1.4632,-0.1016,-2.0864,0.5383,2.3179,0.7692,0.7007,0.0491,49.27860771,-122.98366312,0.00000000,
21.6800,-0.1760,1.4632,-0.1016,-2.0864,0.5383,2.3179,-0.1980,0.9845,0.1601,49.27860771,-122.98366312,0.00000000,
21.7010,-0.1760,1.4632,-0.1016,-0.7952,3.6770,2.0133,-0.1980,0.9845,0.1601,49.27860771,-122.98366312,0.00000000,
21.7190,-0.3497,1.4314,-0.1532,-0.7952,3.6770,2.0133,-0.1980,0.9845,0.1601,49.27860771,-122.98366312,0.00000000,
21.7380,-0.3497,1.4314,-0.1532,-0.7952,3.6770,2.0133,-1.7130,-0.1149,0.1050,49.27860771,-122.98366312,0.00000000,
21.7580,-0.3497,1.4314,-0.1532,-2.2151,5.8139,0.0722,-1.7130,-0.1149,0.1050,49.27860771,-122.98366312,0.00000000,
21.7950,-0.3157,1.2994,-0.1180,-2.2151,5.8139,0.0722,-1.7130,-0.1149,0.1050,49.27860771,-122.98366312,0.00000000,
21.8140,-0.3157,1.2994,-0.1180,-2.2151,5.8139,0.0722,-2.6855,-0.5381,0.2942,49.27860771,-122.98366312,0.00000000,
21.8330,-0.3157,1.2994,-0.1180,-2.9727,2.0701,-0.4687,-2.6855,-0.5381,0.2942,49.27860771,-122.98366312,0.00000000,
21.8520,-0.2484,1.1554,-0.2662,-2.9727,2.0701,-0.4687,-2.6855,-0.5381,0.2942,49.27860771,-122.98366312,0.00000000,
21.8710,-0.2484,1.1554,-0.2662,-2.9727,2.0701,-0.4687,-2.1540,-1.5766,-0.2326,49.27860771,-122.98366312,0.00000000,
21.8940,-0.2484,1.1554,-0.2662,-1.4546,3.2438,-3.9724,-2.1540,-1.5766,-0.2326,49.27860771,-122.98366312,0.00000000,
21.9280,-0.1320,0.9955,-0.1568,-1.4546,3.2438,-3.9724,-2.1540,-1.5766,-0.2326,49.27860771,-122.98366312,0.00000000,
21.9470,-0.1320,0.9955,-0.1568,-1.4546,3.2438,-3.9724,-1.9411,-2.6058,0.0285,49.27860771,-122.98366312,0.00000000,
21.9670,-0.1320,0.9955,-0.1568,-1.6597,0.4997,-4.4786,-1.9411,-2.6058,0.0285,49.27860771,-122.98366312,0.00000000,
21.9840,0.1019,0.6879,-0.0457,-1.6597,0.4997,-4.4786,-1.9411,-2.6058,0.0285,49.27860771,-122.98366312,0.00000000,
22.0040,0.1019,0.6879,-0.0457,-1.6597,0.4997,-4.4786,-1.7135,-1.6970,0.3439,49.27860771,-122.98366312,0.00000000,
22.0240,0.1019,0.6879,-0.0457,-0.7776,-1.1269,-4.6831,-1.7135,-1.6970,0.3439,49.27860771,-122.98366312,0.00000000,
22.0510,0.4263,0.5940,0.0761,-0.7776,-1.1269,-4.6831,-1.7135,-1.6970,0.3439,49.27860771,-122.98366312,0.00000000,
22.0720,0.4263,0.5940,0.0761,-0.7776,-1.1269,-4.6831,-1.0943,0.5532,-0.5488,49.27860771,-122.98366312,0.00000000,
22.0910,0.4263,0.5940,0.0761,4.5770,-2.9446,-3.4464,-1.0943,0.5532,-0.5488,49.27860771,-122.98366312,0.00000000,
22.1280,-0.1444,0.5552,0.3371,4.5770,-2.9446,-3.4464,-1.0943,0.5532,-0.5488,49.27860771,-122.98366312,0.00000000,
22.1470,-0.1444,0.5552,0.3371,4.5770,-2.9446,-3.4464,-0.6986,0.3775,-0.9792,49.27860771,-122.98366312,0.00000000,
22.1670,-0.1444,0.5552,0.3371,2.6381,-3.1734,-3.0553,-0.6986,0.3775,-0.9792,49.27860771,-122.98366312,0.00000000,
22.1850,-0.5308,0.8060,1.0740,2.6381,-3.1734,-3.0553,-0.6986,0.3775,-0.9792,49.27860771,-122.98366312,0.00000000,
22.2040,-0.5308,0.8060,1.0740,2.6381,-3.1734,-3.0553,-0.0026,-1.1256,-0.1367,49.27860771,-122.98366312,0.00000000,
22.2240,-0.5308,0.8060,1.0740,-3.7298,-2.3529,3.8252,-0.0026,-1.1256,-0.1367,49.27860771,-122.98366312,0.00000000,
22.2610,-0.2707,1.1054,0.9041,-3.7298,-2.3529,3.8252,-0.0026,-1.1256,-0.1367,49.27860771,-122.98366312,0.00000000,
22.2790,-0.2707,1.1054,0.9041,-3.7298,-2.3529,3.8252,0.5345,-1.1406,-0.2683,49.27860771,-122.98366312,0.00000000,
22.3000,-0.2707,1.1054,0.9041,-2.2074,1.0625,5.6448,0.5345,-1.1406,-0.2683,49.27860771,-122.98366312,0.00000000,
22.3200,1.2756,0.5920,0.1120,-2.2074,1.0625,5.6448,0.5345,-1.1406,-0.2683,49.27860771,-122.98366312,0.00000000,
22.3380,1.2756,0.5920,0.1120,-2.2074,1.0625,5.6448,0.5959,0.8814,0.3474,49.27860771,-122.98366312,0.00000000,
22.3570,1.2756,0.5920,0.1120,1.8125,-2.8797,-4.3930,0.5959,0.8814,0.3474,49.27860771,-122.98366312,0.00000000,
22.3950,-0.7692,1.1220,-0.5178,1.8125,-2.8797,-4.3930,0.5959,0.8814,0.3474,49.27860771,-122.98366312,0.00000000,
22.4140,-0.7692,1.1220,-0.5178,1.8125,-2.8797,-4.3930,1.8129,1.2575,-0.3186,49.27860771,-122.98366312,0.00000000,
22.4320,-0.7692,1.1220,-0.5178,6.3943,3.2307,2.2376,1.8129,1.2575,-0.3186,49.27860771,-122.98366312,0.00000000,
22.4520,0.0690,1.0153,0.3654,6.3943,3.2307,2.2376,1.8129,1.2575,-0.3186,49.27860771,-122.98366312,0.00000000,
22.4700,0.0690,1.0153,0.3654,6.3943,3.2307,2.2376,1.9258,0.8575,0.3010,49.27860771,-122.98366312,0.00000000,
22.4900,0.0690,1.0153,0.3654,-3.8037,-0.9423,-2.2133,1.9258,0.8575,0.3010,49.27860771,-122.98366312,0.00000000,
22.5280,-0.3182,0.9033,-0.1081,-3.8037,-0.9423,-2.2133,1.9258,0.8575,0.3010,49.27860771,-122.98366312,0.00000000,
22.5470,-0.3182,0.9033,-0.1081,-3.8037,-0.9423,-2.2133,1.9979,0.7800,-0.3914,49.27860771,-122.98366312,0.00000000,
22.5660,-0.3182,0.9033,-0.1081,2.2028,-0.3160,0.8677,1.9979,0.7800,-0.3914,49.27860771,-122.98366312,0.00000000,
22.5840,-0.3869,0.8239,-0.0832,2.2028,-0.3160,0.8677,1.9979,0.7800,-0.3914,49.27860771,-122.98366312,0.00000000,
22.6030,-0.3869,0.8239,-0.0832,2.2028,-0.3160,0.8677,1.5489,-0.2164,0.2582,49.27860771,-122.98366312,0.00000000,
22.6230,-0.3869,0.8239,-0.0832,-3.8989,-1.5136,-0.0647,1.5489,-0.2164,0.2582,49.27860771,-122.98366312,0.00000000,
22.6600,0.0379,1.0070,0.0225,-3.8989,-1.5136,-0.0647,1.5489,-0.2164,0.2582,49.27860771,-122.98366312,0.00000000,
22.6810,0.0379,1.0070,0.0225,-3.8989,-1.5136,-0.0647,1.3542,0.1640,-0.1333,49.27860771,-122.98366312,0.00000000,
22.6990,0.0379,1.0070,0.0225,0.5393,0.1013,2.1502,1.3542,0.1640,-0.1333,49.27860771,-122.98366312,0.00000000,
22.7180,-0.0139,0.9534,-0.1592,0.5393,0.1013,2.1502,1.3542,0.1640,-0.1333,49.27860771,-122.98366312,0.00000000,
22.7370,-0.0139,0.9534,-0.1592,0.5393,0.1013,2.1502,0.9677,0.8812,0.0177,49.27860771,-122.98366312,0.00000000,
22.7580,-0.0139,0.9534,-0.1592,1.1968,-0.0104,2.2747,0.9677,0.8812,0.0177,49.27860771,-122.98366312,0.00000000,
22.7940,-0.2415,0.9479,-0.0048,1.1968,-0.0104,2.2747,0.9677,0.8812,0.0177,49.27860771,-122.98366312,0.00000000,
22.8140,-0.2415,0.9479,-0.0048,1.1968,-0.0104,2.2747,0.7757,1.0166,0.0498,49.27860771,-122.98366312,0.00000000,
22.8320,-0.2415,0.9479,-0.0048,-0.5343,0.0761,1.9512,0.7757,1.0166,0.0498,49.27860771,-122.98366312,0.00000000,
22.8510,-0.3840,1.3435,0.0190,-0.5343,0.0761,1.9512,0.7757,1.0166,0.0498,49.27860771,-122.98366312,0.00000000,
22.8720,-0.3840,1.3435,0.0190,-0.5343,0.0761,1.9512,0.4535,0.7958,0.0668,49.27860771,-122.98366312,0.00000000,
22.9010,-0.3840,1.3435,0.0190,-2.4984,2.0653,3.6846,0.4535,0.7958,0.0668,49.27860771,-122.98366312,0.00000000,
22.9270,-0.3110,1.6181,-0.2220,-2.4984,2.0653,3.6846,0.4535,0.7958,0.0668,49.27860771,-122.98366312,0.00000000,
22.9470,-0.3110,1.6181,-0.2220,-2.4984,2.0653,3.6846,-0.9374,-0.4983,-0.0270,49.27861521,-122.98365259,0.00000000,
22.9640,-0.3110,1.6181,-0.2220,-3.3341,6.4219,0.8438,-0.9374,-0.4983,-0.0270,49.27861521,-122.98365259,0.00000000,
22.9830,-0.1796,1.2546,-0.2015,-3.3341,6.4219,0.8438,-0.9374,-0.4983,-0.0270,49.27861521,-122.98365259,0.00000000,
23.0020,-0.1796,1.2546,-0.2015,-3.3341,6.4219,0.8438,-2.6897,-0.5870,0.3633,49.27861521,-122.98365259,0.00000000,
23.0210,-0.1796,1.2546,-0.2015,-1.1466,3.2771,-1.4521,-2.6897,-0.5870,0.3633,49.27861521,-122.98365259,0.00000000,
23.0500,0.0092,1.2561,-0.2591,-1.1466,3.2771,-1.4521,-2.6897,-0.5870,0.3633,49.27861521,-122.98365259,0.00000000,
23.0690,0.0092,1.2561,-0.2591,-1.1466,3.2771,-1.4521,-2.2165,-0.2672,-0.0781,49.27861521,-122.98365259,0.00000000,
23.0890,0.0092,1.2561,-0.2591,0.4625,3.0867,-3.5894,-2.2165,-0.2672,-0.0781,49.27861521,-122.98365259,0.00000000,
23.1280,-0.1426,1.0312,-0.1807,0.4625,3.0867,-3.5894,-2.2165,-0.2672,-0.0781,49.27861521,-122.98365259,0.00000000,
23.1460,-0.1426,1.0312,-0.1807,0.4625,3.0867,-3.5894,-2.1038,-1.4972,-0.2301,49.27861521,-122.98365259,0.00000000,
23.1650,-0.1426,1.0312,-0.1807,0.2752,1.1567,-4.3135,-2.1038,-1.4972,-0.2301,49.27861521,-122.98365259,0.00000000,
23.1830,-0.2097,0.7864,-0.0200,0.2752,1.1567,-4.3135,-2.1038,-1.4972,-0.2301,49.27861521,-122.98365259,0.00000000,
23.2030,-0.2097,0.7864,-0.0200,0.2752,1.1567,-4.3135,-1.5845,-2.1031,0.2155,49.27861521,-122.98365259,0.00000000,
23.2210,-0.2097,0.7864,-0.0200,-2.5454,-0.7538,-3.8840,-1.5845,-2.1031,0.2155,49.27861521,-122.98365259,0.00000000,
23.2600,0.3484,0.6487,0.0883,-2.5454,-0.7538,-3.8840,-1.5845,-2.1031,0.2155,49.27861521,-122.98365259,0.00000000,
23.2790,0.3484,0.6487,0.0883,-2.5454,-0.7538,-3.8840,-1.4426,-0.4145,0.1584,49.27861521,-122.98365259,0.00000000,
23.2990,0.3484,0.6487,0.0883,1.2462,-2.0733,-3.9847,-1.4426,-0.4145,0.1584,49.27861521,-122.98365259,0.00000000,
23.3190,0.2134,0.5797,0.3526,1.2462,-2.0733,-3.9847,-1.4426,-0.4145,0.1584,49.27861521,-122.98365259,0.00000000,
23.3370,0.2134,0.5797,0.3526,1.2462,-2.0733,-3.9847,-0.8913,0.6300,-0.6240,49.27861521,-122.98365259,0.00000000,
23.3580,0.2134,0.5797,0.3526,4.7607,-2.6863,-1.5741,-0.8913,0.6300,-0.6240,49.27861521,-122.98365259,0.00000000,
23.3940,-0.2663,0.6135,0.5723,4.7607,-2.6863,-1.5741,-0.8913,0.6300,-0.6240,49.27861521,-122.98365259,0.00000000,
23.4120,-0.2663,0.6135,0.5723,4.7607,-2.6863,-1.5741,-0.6761,0.2579,-0.5303,49.27861521,-122.98365259,0.00000000,
23.4320,-0.2663,0.6135,0.5723,-0.1557,-3.1545,-0.6392,-0.6761,0.2579,-0.5303,49.27861521,-122.98365259,0.00000000,
23.4510,-0.3320,0.7268,0.9308,-0.1557,-3.1545,-0.6392,-0.6761,0.2579,-0.5303,49.27861521,-122.98365259,0.00000000,
23.4690,-0.3320,0.7268,0.9308,-0.1557,-3.1545,-0.6392,0.1053,-0.6931,-0.2814,49.27861521,-122.98365259,0.00000000,
23.4890,-0.3320,0.7268,0.9308,-2.6363,-0.7730,4.3177,0.1053,-0.6931,-0.2814,49.27861521,-122.98365259,0.00000000,
23.5270,-0.0587,0.9568,0.6691,-2.6363,-0.7730,4.3177,0.1053,-0.6931,-0.2814,49.27861521,-122.98365259,0.00000000,
23.5470,-0.0587,0.9568,0.6691,-2.6363,-0.7730,4.3177,0.7392,-0.4254,-0.0010,49.27861521,-122.98365259,0.00000000,
23.5690,-0.0587,0.9568,0.6691,0.1474,-3.2294,2.3188,0.7392,-0.4254,-0.0010,49.27861521,-122.98365259,0.00000000,
23.5840,0.7825,1.0316,0.2212,0.1474,-3.2294,2.3188,0.7392,-0.4254,-0.0010,49.27861521,-122.98365259,0.00000000,
23.6020,0.7825,1.0316,0.2212,0.1474,-3.2294,2.3188,1.0982,1.5343,0.1498,49.27861521,-122.98365259,0.00000000,
23.6220,0.7825,1.0316,0.2212,3.9669,5.0980,1.3475,1.0982,1.5343,0.1498,49.27861521,-122.98365259,0.00000000,
23.6600,-0.6748,1.1154,-0.2572,3.9669,5.0980,1.3475,1.0982,1.5343,0.1498,49.27861521,-122.98365259,0.00000000,
23.6790,-0.6748,1.1154,-0.2572,3.9669,5.0980,1.3475,1.5618,1.5125,-0.0954,49.27861521,-122.98365259,0.00000000,
23.6980,-0.6748,1.1154,-0.2572,3.6551,-1.7692,-2.2224,1.5618,1.5125,-0.0954,49.27861521,-122.98365259,0.00000000,
23.7180,0.3473,0.8618,0.3439,3.6551,-1.7692,-2.2224,1.5618,1.5125,-0.0954,49.27861521,-122.98365259,0.00000000,
23.7360,0.3473,0.8618,0.3439,3.6551,-1.7692,-2.2224,1.7363,1.7411,0.3155,49.27861521,-122.98365259,0.00000000,
