
time,gFx,gFy,gFz,ax,ay,az,wx,wy,wz,Latitude,Longitude,Speed (m/s),
0.0880,-0.1689,0.3965,0.8466,0.0000,0.0000,0.0000,0.0000,0.0000,0.0000,0.00000000,0.00000000,0.00000000,
0.1080,-0.1689,0.3965,0.8466,0.0000,0.0000,0.0000,-0.2476,1.1910,1.6054,49.27916128,-122.98351972,0.00000000,
0.1450,-0.4000,0.3765,0.9230,0.0000,0.0000,0.0000,-0.2476,1.1910,1.6054,49.27916128,-122.98351972,0.00000000,
0.1630,-0.4000,0.3765,0.9230,0.0000,0.0000,0.0000,0.0981,1.4470,1.6798,49.27916128,-122.98351972,0.00000000,
0.1830,-0.4000,0.3765,0.9230,0.0000,0.0000,0.0000,0.0981,1.4470,1.6798,49.27916128,-122.98351972,0.00000000,
0.2240,-0.5285,0.2149,0.8767,0.0000,0.0000,0.0000,0.0981,1.4470,1.6798,49.27916128,-122.98351972,0.00000000,
0.2410,-0.5285,0.2149,0.8767,0.0000,0.0000,0.0000,0.6788,2.5276,2.1545,49.27916128,-122.98351972,0.00000000,
0.2600,-0.5285,0.2149,0.8767,-0.8038,-1.5527,0.7270,0.6788,2.5276,2.1545,49.27916128,-122.98351972,0.00000000,
0.2790,-0.5947,0.1051,0.9114,-0.8038,-1.5527,0.7270,0.6788,2.5276,2.1545,49.27916128,-122.98351972,0.00000000,
0.2970,-0.5947,0.1051,0.9114,-0.8038,-1.5527,0.7270,1.2963,2.3734,1.2131,49.27916128,-122.98351972,0.00000000,
0.3160,-0.5947,0.1051,0.9114,-0.1905,-2.3559,1.5698,1.2963,2.3734,1.2131,49.27916128,-122.98351972,0.00000000,
0.3560,-0.6760,0.1116,0.9746,-0.1905,-2.3559,1.5698,1.2963,2.3734,1.2131,49.27916128,-122.98351972,0.00000000,
0.3730,-0.6760,0.1116,0.9746,-0.1905,-2.3559,1.5698,1.3855,1.3842,0.3211,49.27916128,-122.98351972,0.00000000,
0.3930,-0.6760,0.1116,0.9746,-0.2479,-2.6400,1.5567,1.3855,1.3842,0.3211,49.27916128,-122.98351972,0.00000000,
0.4120,-0.7143,0.3148,0.8443,-0.2479,-2.6400,1.5567,1.3855,1.3842,0.3211,49.27916128,-122.98351972,0.00000000,
0.4310,-0.7143,0.3148,0.8443,-0.2479,-2.6400,1.5567,0.6463,1.5778,-0.0682,49.27916128,-122.98351972,0.00000000,
0.4500,-0.7143,0.3148,0.8443,-0.8501,-1.1392,1.6856,0.6463,1.5778,-0.0682,49.27916128,-122.98351972,0.00000000,
0.4870,-0.5103,0.5374,0.7295,-0.8501,-1.1392,1.6856,0.6463,1.5778,-0.0682,49.27916128,-122.98351972,0.00000000,
0.5070,-0.5103,0.5374,0.7295,-0.8501,-1.1392,1.6856,-1.1447,0.8276,0.4855,49.27916203,-122.98351930,0.00000000,
0.5250,-0.5103,0.5374,0.7295,1.1518,1.3808,-0.1275,-1.1447,0.8276,0.4855,49.27916203,-122.98351930,0.00000000,
0.5450,-0.6881,0.5083,0.7674,1.1518,1.3808,-0.1275,-1.1447,0.8276,0.4855,49.27916203,-122.98351930,0.00000000,
0.5640,-0.6881,0.5083,0.7674,1.1518,1.3808,-0.1275,-0.5342,0.8775,0.3877,49.27916203,-122.98351930,0.00000000,
0.5820,-0.6881,0.5083,0.7674,1.2237,1.3365,1.1073,-0.5342,0.8775,0.3877,49.27916203,-122.98351930,0.00000000,
0.6120,-0.8201,0.4441,0.5754,1.2237,1.3365,1.1073,-0.5342,0.8775,0.3877,49.27916203,-122.98351930,0.00000000,
0.6300,-0.8201,0.4441,0.5754,1.2237,1.3365,1.1073,-0.2464,1.6373,0.1097,49.27916203,-122.98351930,0.00000000,
0.6500,-0.8201,0.4441,0.5754,0.0012,1.3229,0.0010,-0.2464,1.6373,0.1097,49.27916203,-122.98351930,0.00000000,
0.6870,-0.7076,0.4855,0.5471,0.0012,1.3229,0.0010,-0.2464,1.6373,0.1097,49.27916203,-122.98351930,0.00000000,
0.7070,-0.7076,0.4855,0.5471,0.0012,1.3229,0.0010,0.1648,1.6614,-0.3266,49.27916203,-122.98351930,0.00000000,
0.7250,-0.7076,0.4855,0.5471,0.6103,0.8950,0.3875,0.1648,1.6614,-0.3266,49.27916203,-122.98351930,0.00000000,
0.7470,-0.7448,0.4482,0.4900,0.6103,0.8950,0.3875,0.1648,1.6614,-0.3266,49.27916203,-122.98351930,0.00000000,
0.7630,-0.7448,0.4482,0.4900,0.6103,0.8950,0.3875,0.5481,0.0879,-0.7843,49.27916203,-122.98351930,0.00000000,
0.7820,-0.7448,0.4482,0.4900,1.6083,1.2522,-0.1571,0.5481,0.0879,-0.7843,49.27916203,-122.98351930,0.00000000,
0.8210,-0.7632,0.4109,0.2949,1.6083,1.2522,-0.1571,0.5481,0.0879,-0.7843,49.27916203,-122.98351930,0.00000000,
0.8400,-0.7632,0.4109,0.2949,1.6083,1.2522,-0.1571,0.5983,0.2236,0.1146,49.27916203,-122.98351930,0.00000000,
0.8590,-0.7632,0.4109,0.2949,0.5123,-0.0264,-1.1547,0.5983,0.2236,0.1146,49.27916203,-122.98351930,0.00000000,
0.8800,-0.8548,0.3428,0.3750,0.5123,-0.0264,-1.1547,0.5983,0.2236,0.1146,49.27916203,-122.98351930,0.00000000,
0.8970,-0.8548,0.3428,0.3750,0.5123,-0.0264,-1.1547,0.2388,0.9142,0.3834,49.27916203,-122.98351930,0.00000000,
0.9150,-0.8548,0.3428,0.3750,0.7241,-0.1437,-1.2461,0.2388,0.9142,0.3834,49.27916203,-122.98351930,0.00000000,
0.9540,-0.8270,0.5819,0.2001,0.7241,-0.1437,-1.2461,0.2388,0.9142,0.3834,49.27916203,-122.98351930,0.00000000,
0.9720,-0.8270,0.5819,0.2001,0.7241,-0.1437,-1.2461,0.1800,0.5801,0.6267,49.27916203,-122.98351930,0.00000000,
0.9920,-0.8270,0.5819,0.2001,-0.7569,-0.5317,-0.6417,0.1800,0.5801,0.6267,49.27916203,-122.98351930,0.00000000,
1.0140,-0.6908,0.5697,0.3581,-0.7569,-0.5317,-0.6417,0.1800,0.5801,0.6267,49.27916203,-122.98351930,0.00000000,
1.0300,-0.6908,0.5697,0.3581,-0.7569,-0.5317,-0.6417,0.4476,-0.2482,-0.0132,49.27916203,-122.98351930,0.00000000,
1.0490,-0.6908,0.5697,0.3581,1.3936,1.9744,-1.4026,0.4476,-0.2482,-0.0132,49.27916203,-122.98351930,0.00000000,
1.0880,-0.8918,0.5353,0.1809,1.3936,1.9744,-1.4026,0.4476,-0.2482,-0.0132,49.27916203,-122.98351930,0.00000000,
1.1060,-0.8918,0.5353,0.1809,1.3936,1.9744,-1.4026,0.5945,-0.5187,0.0062,49.27916203,-122.98351930,0.00000000,
1.1260,-0.8918,0.5353,0.1809,0.3759,-0.1610,-0.5310,0.5945,-0.5187,0.0062,49.27916203,-122.98351930,0.00000000,
1.1450,-0.8049,0.4991,0.2553,0.3759,-0.1610,-0.5310,0.5945,-0.5187,0.0062,49.27916203,-122.98351930,0.00000000,
1.1630,-0.8049,0.4991,0.2553,0.3759,-0.1610,-0.5310,0.2793,-0.3147,0.1940,49.27916203,-122.98351930,0.00000000,
1.1820,-0.8049,0.4991,0.2553,-0.8416,0.1870,-2.0065,0.2793,-0.3147,0.1940,49.27916203,-122.98351930,0.00000000,
1.2210,-0.7709,0.5260,0.1989,-0.8416,0.1870,-2.0065,0.2793,-0.3147,0.1940,49.27916203,-122.98351930,0.00000000,
1.2390,-0.7709,0.5260,0.1989,-0.8416,0.1870,-2.0065,0.0960,0.0387,0.1275,49.27916203,-122.98351930,0.00000000,
1.2590,-0.7709,0.5260,0.1989,0.0537,-0.2147,-1.4358,0.0960,0.0387,0.1275,49.27916203,-122.98351930,0.00000000,
1.2810,-0.7259,0.4885,0.3732,0.0537,-0.2147,-1.4358,0.0960,0.0387,0.1275,49.27916203,-122.98351930,0.00000000,
1.2960,-0.7259,0.4885,0.3732,0.0537,-0.2147,-1.4358,0.0631,-0.1517,0.1221,49.27916203,-122.98351930,0.00000000,
1.3150,-0.7259,0.4885,0.3732,0.5862,-0.0416,-0.9209,0.0631,-0.1517,0.1221,49.27916203,-122.98351930,0.00000000,
1.3550,-0.8779,0.5832,0.3203,0.5862,-0.0416,-0.9209,0.0631,-0.1517,0.1221,49.27916203,-122.98351930,0.00000000,
1.3720,-0.8779,0.5832,0.3203,0.5862,-0.0416,-0.9209,0.2392,0.1176,0.2181,49.27916203,-122.98351930,0.00000000,
1.3920,-0.8779,0.5832,0.3203,0.1098,0.0070,0.1089,0.2392,0.1176,0.2181,49.27916203,-122.98351930,0.00000000,
1.4120,-0.7691,0.7461,0.1623,0.1098,0.0070,0.1089,0.2392,0.1176,0.2181,49.27916203,-122.98351930,0.00000000,
1.4300,-0.7691,0.7461,0.1623,0.1098,0.0070,0.1089,0.0329,0.3445,0.1572,49.27916203,-122.98351930,0.00000000,
1.4480,-0.7691,0.7461,0.1623,-0.7301,1.5122,-1.0939,0.0329,0.3445,0.1572,49.27916203,-122.98351930,0.00000000,
1.4860,-0.9569,0.5883,0.2933,-0.7301,1.5122,-1.0939,0.0329,0.3445,0.1572,49.27916203,-122.98351930,0.00000000,
1.5050,-0.9569,0.5883,0.2933,-0.7301,1.5122,-1.0939,0.0358,0.8342,0.8607,49.27916203,-122.98351930,0.00000000,
1.5260,-0.9569,0.5883,0.2933,0.1940,-0.0407,0.0051,0.0358,0.8342,0.8607,49.27916203,-122.98351930,0.00000000,
1.5440,-0.5560,0.6921,0.1355,0.1940,-0.0407,0.0051,0.0358,0.8342,0.8607,49.27916203,-122.98351930,0.00000000,
1.5620,-0.5560,0.6921,0.1355,0.1940,-0.0407,0.0051,-0.3288,0.9636,0.6537,49.27916203,-122.98351930,0.00000000,
1.5820,-0.5560,0.6921,0.1355,-0.9122,-0.1290,-0.3333,-0.3288,0.9636,0.6537,49.27916203,-122.98351930,0.00000000,
1.6110,-0.7286,0.7271,0.2455,-0.9122,-0.1290,-0.3333,-0.3288,0.9636,0.6537,49.27916203,-122.98351930,0.00000000,
1.6290,-0.7286,0.7271,0.2455,-0.9122,-0.1290,-0.3333,-0.5693,1.5317,0.7706,49.27916203,-122.98351930,0.00000000,
1.6490,-0.7286,0.7271,0.2455,1.1196,0.7339,-0.2137,-0.5693,1.5317,0.7706,49.27916203,-122.98351930,0.00000000,
1.6860,-0.7163,0.6993,0.2455,1.1196,0.7339,-0.2137,-0.5693,1.5317,0.7706,49.27916203,-122.98351930,0.00000000,
1.7050,-0.7163,0.6993,0.2455,1.1196,0.7339,-0.2137,-0.4340,-0.1780,0.3638,49.27916203,-122.98351930,0.00000000,
1.7270,-0.7163,0.6993,0.2455,0.3722,0.1559,0.1299,-0.4340,-0.1780,0.3638,49.27916203,-122.98351930,0.00000000,
1.7430,-0.6833,0.7280,0.0103,0.3722,0.1559,0.1299,-0.4340,-0.1780,0.3638,49.27916203,-122.98351930,0.00000000,
1.7620,-0.6833,0.7280,0.0103,0.3722,0.1559,0.1299,0.4112,-0.2728,0.0242,49.27916203,-122.98351930,0.00000000,
1.7810,-0.6833,0.7280,0.0103,0.0412,0.4362,-0.3532,0.4112,-0.2728,0.0242,49.27916203,-122.98351930,0.00000000,
1.8200,-0.7119,0.6545,-0.0193,0.0412,0.4362,-0.3532,0.4112,-0.2728,0.0242,49.27916203,-122.98351930,0.00000000,
1.8380,-0.7119,0.6545,-0.0193,0.0412,0.4362,-0.3532,0.0939,-0.0194,-0.0338,49.27916203,-122.98351930,0.00000000,
1.8570,-0.7119,0.6545,-0.0193,0.2568,-0.2734,-2.1966,0.0939,-0.0194,-0.0338,49.27916203,-122.98351930,0.00000000,
1.8760,-0.5421,0.6987,0.1082,0.2568,-0.2734,-2.1966,0.0939,-0.0194,-0.0338,49.27916203,-122.98351930,0.00000000,
1.8950,-0.5421,0.6987,0.1082,0.2568,-0.2734,-2.1966,-0.6312,-1.1788,-0.5422,49.27916203,-122.98351930,0.00000000,
1.9140,-0.5421,0.6987,0.1082,1.5151,0.6289,-3.2103,-0.6312,-1.1788,-0.5422,49.27916203,-122.98351930,0.00000000,
1.9530,-0.5442,0.5862,0.2459,1.5151,0.6289,-3.2103,-0.6312,-1.1788,-0.5422,49.27916203,-122.98351930,0.00000000,
1.9710,-0.5442,0.5862,0.2459,1.5151,0.6289,-3.2103,-0.9393,-2.5128,-1.1188,49.27916203,-122.98351930,0.00000000,
1.9910,-0.5442,0.5862,0.2459,0.9779,1.2405,-2.6030,-0.9393,-2.5128,-1.1188,49.27916203,-122.98351930,0.00000000,
2.0100,-0.5557,0.4771,0.4622,0.9779,1.2405,-2.6030,-0.9393,-2.5128,-1.1188,49.27916203,-122.98351930,0.00000000,
2.0290,-0.5557,0.4771,0.4622,0.9779,1.2405,-2.6030,-0.9321,-3.0261,-2.2622,49.27916203,-122.98351930,0.00000000,
2.0490,-0.5557,0.4771,0.4622,1.6575,0.7031,-2.8406,-0.9321,-3.0261,-2.2622,49.27916203,-122.98351930,0.00000000,
2.0860,-0.8356,0.4322,0.7263,1.6575,0.7031,-2.8406,-0.9321,-3.0261,-2.2622,49.27916203,-122.98351930,0.00000000,
2.1050,-0.8356,0.4322,0.7263,1.6575,0.7031,-2.8406,-0.3813,-1.7677,-1.6559,49.27916203,-122.98351930,0.00000000,
2.1260,-0.8356,0.4322,0.7263,-0.4087,1.3414,-0.5463,-0.3813,-1.7677,-1.6559,49.27916203,-122.98351930,0.00000000,
2.1420,-0.7640,0.3267,0.7113,-0.4087,1.3414,-0.5463,-0.3813,-1.7677,-1.6559,49.27916203,-122.98351930,0.00000000,
2.1620,-0.7640,0.3267,0.7113,-0.4087,1.3414,-0.5463,-0.3455,-0.9078,-1.5112,49.27916203,-122.98351930,0.00000000,
2.1820,-0.7640,0.3267,0.7113,-1.8302,0.4061,0.6312,-0.3455,-0.9078,-1.5112,49.27916203,-122.98351930,0.00000000,
2.2190,-0.6394,0.2633,0.7363,-1.8302,0.4061,0.6312,-0.3455,-0.9078,-1.5112,49.27916203,-122.98351930,0.00000000,
2.2390,-0.6394,0.2633,0.7363,-1.8302,0.4061,0.6312,0.2236,-0.7128,-1.4751,49.27916203,-122.98351930,0.00000000,
2.2600,-0.6394,0.2633,0.7363,-1.0565,1.3530,-0.5414,0.2236,-0.7128,-1.4751,49.27916203,-122.98351930,0.00000000,
2.2760,-0.7408,0.2283,0.7280,-1.0565,1.3530,-0.5414,0.2236,-0.7128,-1.4751,49.27916203,-122.98351930,0.00000000,
2.2950,-0.7408,0.2283,0.7280,-1.0565,1.3530,-0.5414,-0.4539,-0.8088,-1.3307,49.27916203,-122.98351930,0.00000000,
2.3170,-0.7408,0.2283,0.7280,-0.2853,0.7121,-1.1797,-0.4539,-0.8088,-1.3307,49.27916203,-122.98351930,0.00000000,
2.3540,-0.6897,0.0497,0.6786,-0.2853,0.7121,-1.1797,-0.4539,-0.8088,-1.3307,49.27916203,-122.98351930,0.00000000,
2.3730,-0.6897,0.0497,0.6786,-0.2853,0.7121,-1.1797,-0.2595,-0.3414,-0.5994,49.27916203,-122.98351930,0.00000000,
2.3910,-0.6897,0.0497,0.6786,-0.9516,0.4997,-0.5895,-0.2595,-0.3414,-0.5994,49.27916203,-122.98351930,0.00000000,
2.4110,-0.5958,0.1179,0.8092,-0.9516,0.4997,-0.5895,-0.2595,-0.3414,-0.5994,49.27916203,-122.98351930,0.00000000,
2.4280,-0.5958,0.1179,0.8092,-0.9516,0.4997,-0.5895,-0.1502,-0.4714,-0.1624,49.27916203,-122.98351930,0.00000000,
2.4510,-0.5958,0.1179,0.8092,-0.6371,-0.7993,-0.7077,-0.1502,-0.4714,-0.1624,49.27916203,-122.98351930,0.00000000,
2.4850,-0.6756,0.1462,0.7780,-0.6371,-0.7993,-0.7077,-0.1502,-0.4714,-0.1624,49.27916203,-122.98351930,0.00000000,
2.5050,-0.6756,0.1462,0.7780,-0.6371,-0.7993,-0.7077,-0.0914,0.2909,0.2123,49.27916203,-122.98351930,0.00000000,
2.5230,-0.6756,0.1462,0.7780,-0.4063,0.5480,0.3302,-0.0914,0.2909,0.2123,49.27916203,-122.98351930,0.00000000,
2.5430,-0.5768,0.1712,0.8336,-0.4063,0.5480,0.3302,-0.0914,0.2909,0.2123,49.27916203,-122.98351930,0.00000000,
2.5620,-0.5768,0.1712,0.8336,-0.4063,0.5480,0.3302,0.0955,0.4775,0.2004,49.27916203,-122.98351930,0.00000000,
2.5830,-0.5768,0.1712,0.8336,0.2901,0.0900,0.2781,0.0955,0.4775,0.2004,49.27916203,-122.98351930,0.00000000,
2.6090,-0.6968,0.0747,0.7844,0.2901,0.0900,0.2781,0.0955,0.4775,0.2004,49.27916203,-122.98351930,0.00000000,
2.6280,-0.6968,0.0747,0.7844,0.2901,0.0900,0.2781,0.4467,0.7054,0.2631,49.27916203,-122.98351930,0.00000000,
2.6500,-0.6968,0.0747,0.7844,0.0873,-0.4646,0.9906,0.4467,0.7054,0.2631,49.27916203,-122.98351930,0.00000000,
2.6860,-0.6873,0.1036,0.7096,0.0873,-0.4646,0.9906,0.4467,0.7054,0.2631,49.27916203,-122.98351930,0.00000000,
2.7070,-0.6873,0.1036,0.7096,0.0873,-0.4646,0.9906,0.1233,-0.0396,0.3827,49.27916203,-122.98351930,0.00000000,
2.7240,-0.6873,0.1036,0.7096,-0.4703,-1.0266,-0.7042,0.1233,-0.0396,0.3827,49.27916203,-122.98351930,0.00000000,
2.7420,-0.6194,0.2466,0.6804,-0.4703,-1.0266,-0.7042,0.1233,-0.0396,0.3827,49.27916203,-122.98351930,0.00000000,
2.7620,-0.6194,0.2466,0.6804,-0.4703,-1.0266,-0.7042,0.0123,0.0935,0.1271,49.27916203,-122.98351930,0.00000000,
2.7830,-0.6194,0.2466,0.6804,0.0938,0.2785,-0.5100,0.0123,0.0935,0.1271,49.27916203,-122.98351930,0.00000000,
2.8190,-0.6444,0.2105,0.6932,0.0938,0.2785,-0.5100,0.0123,0.0935,0.1271,49.27916203,-122.98351930,0.00000000,
2.8400,-0.6444,0.2105,0.6932,0.0938,0.2785,-0.5100,-0.0575,-0.0419,0.2132,49.27916203,-122.98351930,0.00000000,
2.8570,-0.6444,0.2105,0.6932,-0.1006,0.1300,-0.5223,-0.0575,-0.0419,0.2132,49.27916203,-122.98351930,0.00000000,
2.8750,-0.6565,0.2637,0.7637,-0.1006,0.1300,-0.5223,-0.0575,-0.0419,0.2132,49.27916203,-122.98351930,0.00000000,
2.8960,-0.6565,0.2637,0.7637,-0.1006,0.1300,-0.5223,0.0170,-0.0566,-0.1767,49.27916203,-122.98351930,0.00000000,
2.9140,-0.6565,0.2637,0.7637,0.1443,0.8006,-0.5837,0.0170,-0.0566,-0.1767,49.27916203,-122.98351930,0.00000000,
2.9510,-0.6132,0.1891,0.7368,0.1443,0.8006,-0.5837,0.0170,-0.0566,-0.1767,49.27916203,-122.98351930,0.00000000,
2.9720,-0.6132,0.1891,0.7368,0.1443,0.8006,-0.5837,0.1660,-0.3589,-0.5846,49.27916203,-122.98351930,0.00000000,
2.9910,-0.6132,0.1891,0.7368,0.4047,0.6993,0.1159,0.1660,-0.3589,-0.5846,49.27916203,-122.98351930,0.00000000,
3.0090,-0.7593,0.1446,0.6739,0.4047,0.6993,0.1159,0.1660,-0.3589,-0.5846,49.27916203,-122.98351930,0.00000000,
3.0280,-0.7593,0.1446,0.6739,0.4047,0.6993,0.1159,0.0192,0.0206,0.0229,49.27916203,-122.98351930,0.00000000,
3.0480,-0.7593,0.1446,0.6739,-0.8974,-0.5065,-0.1066,0.0192,0.0206,0.0229,49.27916203,-122.98351930,0.00000000,
3.0850,-0.7021,0.1959,0.7947,-0.8974,-0.5065,-0.1066,0.0192,0.0206,0.0229,49.27916203,-122.98351930,0.00000000,
3.1070,-0.7021,0.1959,0.7947,-0.8974,-0.5065,-0.1066,0.0339,0.1904,0.4581,49.27916203,-122.98351930,0.00000000,
3.1230,-0.7021,0.1959,0.7947,-0.9788,-0.2354,-0.4227,0.0339,0.1904,0.4581,49.27916203,-122.98351930,0.00000000,
3.1420,-0.7624,0.2358,0.7917,-0.9788,-0.2354,-0.4227,0.0339,0.1904,0.4581,49.27916203,-122.98351930,0.00000000,
3.1610,-0.7624,0.2358,0.7917,-0.9788,-0.2354,-0.4227,0.5015,1.1025,0.9757,49.27916203,-122.98351930,0.00000000,
3.1810,-0.7624,0.2358,0.7917,0.2746,-0.8194,1.3857,0.5015,1.1025,0.9757,49.27916203,-122.98351930,0.00000000,
3.2190,-0.8484,0.3155,0.7467,0.2746,-0.8194,1.3857,0.5015,1.1025,0.9757,49.27916203,-122.98351930,0.00000000,
3.2390,-0.8484,0.3155,0.7467,0.2746,-0.8194,1.3857,0.9397,3.2493,2.2460,49.27916203,-122.98351930,0.00000000,
3.2560,-0.8484,0.3155,0.7467,-0.7862,-1.6201,3.0795,0.9397,3.2493,2.2460,49.27916203,-122.98351930,0.00000000,
3.2750,-0.7081,0.4471,0.4531,-0.7862,-1.6201,3.0795,0.9397,3.2493,2.2460,49.27916203,-122.98351930,0.00000000,
3.2950,-0.7081,0.4471,0.4531,-0.7862,-1.6201,3.0795,0.8617,1.9024,1.5454,49.27916203,-122.98351930,0.00000000,
3.3140,-0.7081,0.4471,0.4531,0.1853,-1.2373,1.7148,0.8617,1.9024,1.5454,49.27916203,-122.98351930,0.00000000,
3.3520,-0.6551,0.3947,0.3486,0.1853,-1.2373,1.7148,0.8617,1.9024,1.5454,49.27916203,-122.98351930,0.00000000,
3.3710,-0.6551,0.3947,0.3486,0.1853,-1.2373,1.7148,0.6334,1.9095,1.2019,49.27916203,-122.98351930,0.00000000,
3.3900,-0.6551,0.3947,0.3486,0.6012,-1.6581,1.6974,0.6334,1.9095,1.2019,49.27916203,-122.98351930,0.00000000,
3.4080,-0.7049,0.5193,0.2691,0.6012,-1.6581,1.6974,0.6334,1.9095,1.2019,49.27916203,-122.98351930,0.00000000,
3.4280,-0.7049,0.5193,0.2691,0.6012,-1.6581,1.6974,0.6572,1.6619,0.6385,49.27916203,-122.98351930,0.00000000,
3.4470,-0.7049,0.5193,0.2691,1.4724,-1.8310,1.1734,0.6572,1.6619,0.6385,49.27916203,-122.98351930,0.00000000,
3.4840,-0.7193,0.6460,0.1743,1.4724,-1.8310,1.1734,0.6572,1.6619,0.6385,49.27916203,-122.98351930,0.00000000,
3.5040,-0.7193,0.6460,0.1743,1.4724,-1.8310,1.1734,0.8142,1.5228,0.8045,49.27916203,-122.98351930,0.00000000,
3.5230,-0.7193,0.6460,0.1743,-0.3101,-0.7068,1.9615,0.8142,1.5228,0.8045,49.27916203,-122.98351930,0.00000000,
3.5420,-0.5529,0.8371,-0.0694,-0.3101,-0.7068,1.9615,0.8142,1.5228,0.8045,49.27916203,-122.98351930,0.00000000,
3.5600,-0.5529,0.8371,-0.0694,-0.3101,-0.7068,1.9615,0.3530,1.4987,0.8771,49.27916203,-122.98351930,0.00000000,
3.5800,-0.5529,0.8371,-0.0694,0.6628,0.0687,0.9792,0.3530,1.4987,0.8771,49.27916203,-122.98351930,0.00000000,
3.6080,-0.3767,0.6228,-0.1675,0.6628,0.0687,0.9792,0.3530,1.4987,0.8771,49.27916203,-122.98351930,0.00000000,
3.6270,-0.3767,0.6228,-0.1675,0.6628,0.0687,0.9792,0.2507,-0.5313,1.8241,49.27916203,-122.98351930,0.00000000,
3.6460,-0.3767,0.6228,-0.1675,1.6533,-0.2228,-1.5465,0.2507,-0.5313,1.8241,49.27916203,-122.98351930,0.00000000,
3.6860,-0.7880,0.7098,-0.1109,1.6533,-0.2228,-1.5465,0.2507,-0.5313,1.8241,49.27916203,-122.98351930,0.00000000,
3.7040,-0.7880,0.7098,-0.1109,1.6533,-0.2228,-1.5465,-0.0321,-0.4110,1.6714,49.27916203,-122.98351930,0.00000000,
3.7220,-0.7880,0.7098,-0.1109,0.4643,-2.1203,-2.3478,-0.0321,-0.4110,1.6714,49.27916203,-122.98351930,0.00000000,
3.7410,-1.1137,0.8599,0.1706,0.4643,-2.1203,-2.3478,-0.0321,-0.4110,1.6714,49.27916203,-122.98351930,0.00000000,
3.7600,-1.1137,0.8599,0.1706,0.4643,-2.1203,-2.3478,-0.6023,0.7004,-1.6779,49.27916203,-122.98351930,0.00000000,
3.7800,-1.1137,0.8599,0.1706,-5.2219,0.4139,2.0262,-0.6023,0.7004,-1.6779,49.27916203,-122.98351930,0.00000000,
3.8180,-0.6454,0.8354,-0.0842,-5.2219,0.4139,2.0262,-0.6023,0.7004,-1.6779,49.27916203,-122.98351930,0.00000000,
3.8360,-0.6454,0.8354,-0.0842,-5.2219,0.4139,2.0262,-0.1523,0.2394,-1.4784,49.27916203,-122.98351930,0.00000000,
3.8550,-0.6454,0.8354,-0.0842,-0.8748,1.6708,-0.7646,-0.1523,0.2394,-1.4784,49.27916203,-122.98351930,0.00000000,
3.8740,-0.3541,0.5707,-0.0052,-0.8748,1.6708,-0.7646,-0.1523,0.2394,-1.4784,49.27916203,-122.98351930,0.00000000,
3.8940,-0.3541,0.5707,-0.0052,-0.8748,1.6708,-0.7646,-0.1778,-0.0559,-0.0533,49.27916203,-122.98351930,0.00000000,
3.9130,-0.3541,0.5707,-0.0052,2.6279,-0.7089,-0.4101,-0.1778,-0.0559,-0.0533,49.27916203,-122.98351930,0.00000000,
3.9500,-0.5556,0.6007,-0.0014,2.6279,-0.7089,-0.4101,-0.1778,-0.0559,-0.0533,49.27916203,-122.98351930,0.00000000,
3.9700,-0.5556,0.6007,-0.0014,2.6279,-0.7089,-0.4101,-0.6503,-0.2995,1.4765,49.27916203,-122.98351930,0.00000000,
3.9900,-0.5556,0.6007,-0.0014,1.1817,-2.8986,-0.7951,-0.6503,-0.2995,1.4765,49.27916203,-122.98351930,0.00000000,
4.0080,-0.6500,0.8852,0.0241,1.1817,-2.8986,-0.7951,-0.6503,-0.2995,1.4765,49.27916203,-122.98351930,0.00000000,
4.0280,-0.6500,0.8852,0.0241,1.1817,-2.8986,-0.7951,0.2706,-0.5502,1.0513,49.27916203,-122.98351930,0.00000000,
4.0460,-0.6500,0.8852,0.0241,-0.3380,0.2011,-0.7349,0.2706,-0.5502,1.0513,49.27916203,-122.98351930,0.00000000,
4.0840,-0.5336,1.0385,-0.0237,-0.3380,0.2011,-0.7349,0.2706,-0.5502,1.0513,49.27916203,-122.98351930,0.00000000,
4.1040,-0.5336,1.0385,-0.0237,-0.3380,0.2011,-0.7349,0.1318,0.0555,0.6717,49.27916203,-122.98351930,0.00000000,
4.1220,-0.5336,1.0385,-0.0237,-1.6017,-0.3710,1.2291,0.1318,0.0555,0.6717,49.27916203,-122.98351930,0.00000000,
4.1410,-0.6345,1.0774,0.1022,-1.6017,-0.3710,1.2291,0.1318,0.0555,0.6717,49.27916203,-122.98351930,0.00000000,
4.1610,-0.6345,1.0774,0.1022,-1.6017,-0.3710,1.2291,0.3887,-0.9327,0.7467,49.27916203,-122.98351930,0.00000000,
4.1800,-0.6345,1.0774,0.1022,-0.5919,3.0761,-1.4697,0.3887,-0.9327,0.7467,49.27916203,-122.98351930,0.00000000,
4.2210,-0.3903,0.9196,-0.0298,-0.5919,3.0761,-1.4697,0.3887,-0.9327,0.7467,49.27916203,-122.98351930,0.00000000,
4.2360,-0.3903,0.9196,-0.0298,-0.5919,3.0761,-1.4697,0.0651,-0.5653,0.4877,49.27916203,-122.98351930,0.00000000,
4.2560,-0.3903,0.9196,-0.0298,0.0542,1.1967,-1.1570,0.0651,-0.5653,0.4877,49.27916203,-122.98351930,0.00000000,
4.2740,-0.2989,0.9270,0.0316,0.0542,1.1967,-1.1570,0.0651,-0.5653,0.4877,49.27916203,-122.98351930,0.00000000,
4.2930,-0.2989,0.9270,0.0316,0.0542,1.1967,-1.1570,-0.6148,0.0370,0.0406,49.27916203,-122.98351930,0.00000000,
4.3120,-0.2989,0.9270,0.0316,1.6524,0.2995,-1.9374,-0.6148,0.0370,0.0406,49.27916203,-122.98351930,0.00000000,
4.3510,-0.4321,0.9080,0.0153,1.6524,0.2995,-1.9374,-0.6148,0.0370,0.0406,49.27916203,-122.98351930,0.00000000,
4.3710,-0.4321,0.9080,0.0153,1.6524,0.2995,-1.9374,-0.5897,0.0345,-0.1662,49.27916203,-122.98351930,0.00000000,
4.3890,-0.4321,0.9080,0.0153,0.2399,0.2359,0.5764,-0.5897,0.0345,-0.1662,49.27916203,-122.98351930,0.00000000,
4.4080,-0.4973,0.8911,0.2184,0.2399,0.2359,0.5764,-0.5897,0.0345,-0.1662,49.27916203,-122.98351930,0.00000000,
4.4270,-0.4973,0.8911,0.2184,0.2399,0.2359,0.5764,-0.4991,0.0176,0.0031,49.27916203,-122.98351930,0.00000000,
4.4460,-0.4973,0.8911,0.2184,-0.5676,-0.3140,-0.8939,-0.4991,0.0176,0.0031,49.27916203,-122.98351930,0.00000000,
4.4840,-0.4250,0.8630,0.1508,-0.5676,-0.3140,-0.8939,-0.4991,0.0176,0.0031,49.27916203,-122.98351930,0.00000000,
4.5020,-0.4250,0.8630,0.1508,-0.5676,-0.3140,-0.8939,-0.7761,-0.1568,-0.0772,49.27916203,-122.98351930,0.00000000,
4.5220,-0.4250,0.8630,0.1508,-0.1000,0.6627,-1.8778,-0.7761,-0.1568,-0.0772,49.27916203,-122.98351930,0.00000000,
4.5410,-0.4450,0.8437,0.1998,-0.1000,0.6627,-1.8778,-0.7761,-0.1568,-0.0772,49.27916203,-122.98351930,0.00000000,
4.5610,-0.4450,0.8437,0.1998,-0.1000,0.6627,-1.8778,-0.1059,-0.2590,-0.1867,49.27916203,-122.98351930,0.00000000,
4.5810,-0.4450,0.8437,0.1998,1.3102,-0.3157,1.2131,-0.1059,-0.2590,-0.1867,49.27916203,-122.98351930,0.00000000,
4.6170,-0.5555,0.8881,0.2164,1.3102,-0.3157,1.2131,-0.1059,-0.2590,-0.1867,49.27916203,-122.98351930,0.00000000,
4.6370,-0.5555,0.8881,0.2164,1.3102,-0.3157,1.2131,-0.2785,0.0408,0.0205,49.27916203,-122.98351930,0.00000000,
4.6560,-0.5555,0.8881,0.2164,-0.7374,0.6234,-1.3570,-0.2785,0.0408,0.0205,49.27916203,-122.98351930,0.00000000,
4.6740,-0.4836,0.7843,0.2992,-0.7374,0.6234,-1.3570,-0.2785,0.0408,0.0205,49.27916203,-122.98351930,0.00000000,
4.6930,-0.4836,0.7843,0.2992,-0.7374,0.6234,-1.3570,0.4121,-1.4256,0.1652,49.27916203,-122.98351930,0.00000000,
4.7150,-0.4836,0.7843,0.2992,-0.9816,-0.7994,0.2400,0.4121,-1.4256,0.1652,49.27916203,-122.98351930,0.00000000,
4.7510,-0.4457,0.9048,0.3031,-0.9816,-0.7994,0.2400,0.4121,-1.4256,0.1652,49.27916203,-122.98351930,0.00000000,
4.7710,-0.4457,0.9048,0.3031,-0.9816,-0.7994,0.2400,0.4968,-0.8886,0.2148,49.27916203,-122.98351930,0.00000000,
4.7890,-0.4457,0.9048,0.3031,-0.6176,-0.5419,0.0418,0.4968,-0.8886,0.2148,49.27916203,-122.98351930,0.00000000,
4.8080,-0.3719,0.9854,0.3039,-0.6176,-0.5419,0.0418,0.4968,-0.8886,0.2148,49.27916203,-122.98351930,0.00000000,
4.8270,-0.3719,0.9854,0.3039,-0.6176,-0.5419,0.0418,1.1558,-0.8509,0.1909,49.27916203,-122.98351930,0.00000000,
4.8460,-0.3719,0.9854,0.3039,-0.4900,0.5213,1.1664,1.1558,-0.8509,0.1909,49.27916203,-122.98351930,0.00000000,
4.8840,-0.4145,0.9810,0.2342,-0.4900,0.5213,1.1664,1.1558,-0.8509,0.1909,49.27916203,-122.98351930,0.00000000,
4.9030,-0.4145,0.9810,0.2342,-0.4900,0.5213,1.1664,1.4302,0.1087,0.0797,49.27916203,-122.98351930,0.00000000,
4.9220,-0.4145,0.9810,0.2342,-0.0388,0.7018,1.6499,1.4302,0.1087,0.0797,49.27916203,-122.98351930,0.00000000,
4.9410,-0.3800,0.9872,-0.0629,-0.0388,0.7018,1.6499,1.4302,0.1087,0.0797,49.27916203,-122.98351930,0.00000000,
4.9600,-0.3800,0.9872,-0.0629,-0.0388,0.7018,1.6499,0.6156,0.4372,0.0793,49.27916203,-122.98351930,0.00000000,
4.9800,-0.3800,0.9872,-0.0629,0.0009,0.4827,-1.5514,0.6156,0.4372,0.0793,49.27916203,-122.98351930,0.00000000,
5.0170,-0.2789,0.7957,-0.0049,0.0009,0.4827,-1.5514,0.6156,0.4372,0.0793,49.27916203,-122.98351930,0.00000000,
5.0350,-0.2789,0.7957,-0.0049,0.0009,0.4827,-1.5514,0.0983,0.6635,0.0779,49.27916203,-122.98351930,0.00000000,
5.0550,-0.2789,0.7957,-0.0049,0.9044,-0.6928,0.2647,0.0983,0.6635,0.0779,49.27916203,-122.98351930,0.00000000,
5.0740,-0.3743,0.8278,0.0838,0.9044,-0.6928,0.2647,0.0983,0.6635,0.0779,49.27916203,-122.98351930,0.00000000,
5.0930,-0.3743,0.8278,0.0838,0.9044,-0.6928,0.2647,0.2123,-0.1105,0.1139,49.27916203,-122.98351930,0.00000000,
5.1130,-0.3743,0.8278,0.0838,-0.3984,-0.9269,0.3066,0.2123,-0.1105,0.1139,49.27916203,-122.98351930,0.00000000,
5.1520,-0.3420,0.7985,0.0604,-0.3984,-0.9269,0.3066,0.2123,-0.1105,0.1139,49.27916203,-122.98351930,0.00000000,
5.1700,-0.3420,0.7985,0.0604,-0.3984,-0.9269,0.3066,0.3479,-0.0927,0.0114,49.27916203,-122.98351930,0.00000000,
5.1900,-0.3420,0.7985,0.0604,0.5282,-1.0931,0.1147,0.3479,-0.0927,0.0114,49.27916203,-122.98351930,0.00000000,
5.2100,-0.3932,0.8330,-0.1551,0.5282,-1.0931,0.1147,0.3479,-0.0927,0.0114,49.27916203,-122.98351930,0.00000000,
5.2270,-0.3932,0.8330,-0.1551,0.5282,-1.0931,0.1147,-0.0169,-0.4538,0.1326,49.27916203,-122.98351930,0.00000000,
5.2460,-0.3932,0.8330,-0.1551,-0.2979,-1.8348,-1.0205,-0.0169,-0.4538,0.1326,49.27916203,-122.98351930,0.00000000,
5.2840,-0.2872,1.0069,0.0008,-0.2979,-1.8348,-1.0205,-0.0169,-0.4538,0.1326,49.27916203,-122.98351930,0.00000000,
5.3030,-0.2872,1.0069,0.0008,-0.2979,-1.8348,-1.0205,-0.3431,-0.6969,0.1364,49.27916203,-122.98351930,0.00000000,
5.3230,-0.2872,1.0069,0.0008,0.0640,0.2713,-1.2725,-0.3431,-0.6969,0.1364,49.27916203,-122.98351930,0.00000000,
5.3420,-0.3875,1.1130,0.1335,0.0640,0.2713,-1.2725,-0.3431,-0.6969,0.1364,49.27916203,-122.98351930,0.00000000,
5.3600,-0.3875,1.1130,0.1335,0.0640,0.2713,-1.2725,-0.2829,-0.1299,0.2991,49.27916203,-122.98351930,0.00000000,
5.3790,-0.3875,1.1130,0.1335,-0.1204,1.4698,-0.9553,-0.2829,-0.1299,0.2991,49.27916203,-122.98351930,0.00000000,
5.4170,-0.3118,0.9327,0.0989,-0.1204,1.4698,-0.9553,-0.2829,-0.1299,0.2991,49.27916203,-122.98351930,0.00000000,
5.4350,-0.3118,0.9327,0.0989,-0.1204,1.4698,-0.9553,0.1269,-0.5599,0.2186,49.27916203,-122.98351930,0.00000000,
5.4540,-0.3118,0.9327,0.0989,-0.2235,0.5560,0.8219,0.1269,-0.5599,0.2186,49.27916203,-122.98351930,0.00000000,
5.4740,-0.2788,0.8828,-0.0054,-0.2235,0.5560,0.8219,0.1269,-0.5599,0.2186,49.27916203,-122.98351930,0.00000000,
5.4930,-0.2788,0.8828,-0.0054,-0.2235,0.5560,0.8219,-0.0218,-0.2437,0.4122,49.27916203,-122.98351930,0.00000000,
5.5110,-0.2788,0.8828,-0.0054,-0.0208,-1.1834,-0.5638,-0.0218,-0.2437,0.4122,49.27916203,-122.98351930,0.00000000,
5.5500,-0.1588,0.9689,0.1184,-0.0208,-1.1834,-0.5638,-0.0218,-0.2437,0.4122,49.27916203,-122.98351930,0.00000000,
5.5680,-0.1588,0.9689,0.1184,-0.0208,-1.1834,-0.5638,-0.3089,-0.0332,0.2940,49.27916203,-122.98351930,0.00000000,
5.5880,-0.1588,0.9689,0.1184,0.1498,0.0488,-1.3521,-0.3089,-0.0332,0.2940,49.27916203,-122.98351930,0.00000000,
5.6170,-0.1905,0.8724,0.1685,0.1498,0.0488,-1.3521,-0.3089,-0.0332,0.2940,49.27916203,-122.98351930,0.00000000,
5.6350,-0.1905,0.8724,0.1685,0.1498,0.0488,-1.3521,0.1158,-0.4191,0.0031,49.27916203,-122.98351930,0.00000000,
5.6550,-0.1905,0.8724,0.1685,0.7884,0.0256,1.1064,0.1158,-0.4191,0.0031,49.27916203,-122.98351930,0.00000000,
5.6740,-0.3440,1.1572,0.0845,0.7884,0.0256,1.1064,0.1158,-0.4191,0.0031,49.27916203,-122.98351930,0.00000000,
5.6920,-0.3440,1.1572,0.0845,0.7884,0.0256,1.1064,0.0484,0.1162,0.2608,49.27916203,-122.98351930,0.00000000,
5.7110,-0.3440,1.1572,0.0845,0.0469,-0.1758,-0.4360,0.0484,0.1162,0.2608,49.27916203,-122.98351930,0.00000000,
5.7500,-0.2685,1.3568,0.2159,0.0469,-0.1758,-0.4360,0.0484,0.1162,0.2608,49.27916203,-122.98351930,0.00000000,
5.7690,-0.2685,1.3568,0.2159,0.0469,-0.1758,-0.4360,0.1590,1.2098,0.1228,49.27916203,-122.98351930,0.00000000,
5.7880,-0.2685,1.3568,0.2159,-0.7099,3.9415,0.6974,0.1590,1.2098,0.1228,49.27916203,-122.98351930,0.00000000,
5.8070,-0.1211,0.8093,-0.0628,-0.7099,3.9415,0.6974,0.1590,1.2098,0.1228,49.27916203,-122.98351930,0.00000000,
5.8260,-0.1211,0.8093,-0.0628,-0.7099,3.9415,0.6974,-0.1008,0.1255,0.2436,49.27916203,-122.98351930,0.00000000,
5.8440,-0.1211,0.8093,-0.0628,-0.1341,-0.1899,-0.5605,-0.1008,0.1255,0.2436,49.27916203,-122.98351930,0.00000000,
5.8840,-0.1814,0.9728,0.1456,-0.1341,-0.1899,-0.5605,-0.1008,0.1255,0.2436,49.27916203,-122.98351930,0.00000000,
5.9020,-0.1814,0.9728,0.1456,-0.1341,-0.1899,-0.5605,-0.1218,0.0682,-0.0458,49.27916203,-122.98351930,0.00000000,
5.9210,-0.1814,0.9728,0.1456,1.1487,-0.5309,-0.5537,-0.1218,0.0682,-0.0458,49.27916203,-122.98351930,0.00000000,
5.9410,-0.3025,0.8960,-0.0119,1.1487,-0.5309,-0.5537,-0.1218,0.0682,-0.0458,49.27916203,-122.98351930,0.00000000,
5.9590,-0.3025,0.8960,-0.0119,1.1487,-0.5309,-0.5537,-0.4515,0.3134,0.0928,49.27916203,-122.98351930,0.00000000,
5.9780,-0.3025,0.8960,-0.0119,0.3920,-0.0897,-0.5406,-0.4515,0.3134,0.0928,49.27916203,-122.98351930,0.00000000,
6.0160,-0.1815,0.8609,0.1703,0.3920,-0.0897,-0.5406,-0.4515,0.3134,0.0928,49.27916203,-122.98351930,0.00000000,
6.0350,-0.1815,0.8609,0.1703,0.3920,-0.0897,-0.5406,-0.0734,0.4400,0.6727,49.27916203,-122.98351930,0.00000000,
6.0540,-0.1815,0.8609,0.1703,-1.4720,-1.0824,0.0235,-0.0734,0.4400,0.6727,49.27916203,-122.98351930,0.00000000,
6.0730,-0.2663,0.8451,0.1776,-1.4720,-1.0824,0.0235,-0.0734,0.4400,0.6727,49.27916203,-122.98351930,0.00000000,
6.0920,-0.2663,0.8451,0.1776,-1.4720,-1.0824,0.0235,-0.0303,0.1092,1.9910,49.27916203,-122.98351930,0.00000000,
6.1110,-0.2663,0.8451,0.1776,-1.8160,-1.3707,-0.3874,-0.0303,0.1092,1.9910,49.27916203,-122.98351930,0.00000000,
6.1500,0.0664,0.9249,0.0221,-1.8160,-1.3707,-0.3874,-0.0303,0.1092,1.9910,49.27916203,-122.98351930,0.00000000,
6.1690,0.0664,0.9249,0.0221,-1.8160,-1.3707,-0.3874,-0.2633,-0.3575,3.6543,49.27916203,-122.98351930,0.00000000,
6.1880,0.0664,0.9249,0.0221,-3.7471,-1.2802,-0.5397,-0.2633,-0.3575,3.6543,49.27916203,-122.98351930,0.00000000,
6.2060,0.5334,1.3411,0.1217,-3.7471,-1.2802,-0.5397,-0.2633,-0.3575,3.6543,49.27916203,-122.98351930,0.00000000,
6.2250,0.5334,1.3411,0.1217,-3.7471,-1.2802,-0.5397,-0.0584,-0.4269,0.5397,49.27916203,-122.98351930,0.00000000,
6.2440,0.5334,1.3411,0.1217,2.4926,3.1193,0.2425,-0.0584,-0.4269,0.5397,49.27916203,-122.98351930,0.00000000,
6.2830,0.3317,1.0711,0.2479,2.4926,3.1193,0.2425,-0.0584,-0.4269,0.5397,49.27916203,-122.98351930,0.00000000,
6.3020,0.3317,1.0711,0.2479,2.4926,3.1193,0.2425,0.1402,0.2412,-0.7045,49.27916203,-122.98351930,0.00000000,
6.3230,0.3317,1.0711,0.2479,2.1819,1.2688,0.8022,0.1402,0.2412,-0.7045,49.27916203,-122.98351930,0.00000000,
6.3400,0.0698,0.8884,0.0742,2.1819,1.2688,0.8022,0.1402,0.2412,-0.7045,49.27916203,-122.98351930,0.00000000,
6.3580,0.0698,0.8884,0.0742,2.1819,1.2688,0.8022,-0.0815,-0.1784,-0.0619,49.27916203,-122.98351930,0.00000000,
6.3790,0.0698,0.8884,0.0742,-0.8717,-0.7152,-0.5296,-0.0815,-0.1784,-0.0619,49.27916203,-122.98351930,0.00000000,
6.4170,0.2752,0.9672,0.0985,-0.8717,-0.7152,-0.5296,-0.0815,-0.1784,-0.0619,49.27916203,-122.98351930,0.00000000,
6.4350,0.2752,0.9672,0.0985,-0.8717,-0.7152,-0.5296,0.0201,-0.3833,-0.1123,49.27916203,-122.98351930,0.00000000,
6.4540,0.2752,0.9672,0.0985,0.5508,0.1065,0.0909,0.0201,-0.3833,-0.1123,49.27916203,-122.98351930,0.00000000,
6.4720,0.1778,1.0228,0.0441,0.5508,0.1065,0.0909,0.0201,-0.3833,-0.1123,49.27916203,-122.98351930,0.00000000,
6.4910,0.1778,1.0228,0.0441,0.5508,0.1065,0.0909,-0.0385,-0.1147,0.0320,49.27916203,-122.98351930,0.00000000,
6.5110,0.1778,1.0228,0.0441,0.5345,-0.0378,-0.4967,-0.0385,-0.1147,0.0320,49.27916203,-122.98351930,0.00000000,
6.5500,0.1783,0.9892,0.1313,0.5345,-0.0378,-0.4967,-0.0385,-0.1147,0.0320,49.27916203,-122.98351930,0.00000000,
6.5670,0.1783,0.9892,0.1313,0.5345,-0.0378,-0.4967,-0.1193,-0.2170,0.0682,49.27916203,-122.98351930,0.00000000,
6.5860,0.1783,0.9892,0.1313,0.2114,0.1167,-0.7138,-0.1193,-0.2170,0.0682,49.27916203,-122.98351930,0.00000000,
6.6150,0.1505,0.9859,0.1495,0.2114,0.1167,-0.7138,-0.1193,-0.2170,0.0682,49.27916203,-122.98351930,0.00000000,
6.6340,0.1505,0.9859,0.1495,0.2114,0.1167,-0.7138,0.0044,-0.1203,0.0715,49.27916203,-122.98351930,0.00000000,
6.6550,0.1505,0.9859,0.1495,-0.2707,0.1241,0.4297,0.0044,-0.1203,0.0715,49.27916203,-122.98351930,0.00000000,
6.6720,0.1527,0.9942,0.0931,-0.2707,0.1241,0.4297,0.0044,-0.1203,0.0715,49.27916203,-122.98351930,0.00000000,
6.6920,0.1527,0.9942,0.0931,-0.2707,0.1241,0.4297,0.0140,-0.1770,0.0306,49.27916203,-122.98351930,0.00000000,
6.7120,0.1527,0.9942,0.0931,-0.2020,0.1037,-0.4733,0.0140,-0.1770,0.0306,49.27916203,-122.98351930,0.00000000,
6.7490,0.1701,1.0151,0.1457,-0.2020,0.1037,-0.4733,0.0140,-0.1770,0.0306,49.27916203,-122.98351930,0.00000000,
6.7680,0.1701,1.0151,0.1457,-0.2020,0.1037,-0.4733,-0.0034,-0.3231,0.0643,49.27916203,-122.98351930,0.00000000,
6.7870,0.1701,1.0151,0.1457,-0.6385,0.1324,0.1481,-0.0034,-0.3231,0.0643,49.27916203,-122.98351930,0.00000000,
6.8060,0.2786,0.9860,0.1349,-0.6385,0.1324,0.1481,-0.0034,-0.3231,0.0643,49.27916203,-122.98351930,0.00000000,
6.8250,0.2786,0.9860,0.1349,-0.6385,0.1324,0.1481,-0.0319,-0.1674,0.0116,49.27916203,-122.98351930,0.00000000,
6.8430,0.2786,0.9860,0.1349,0.3787,0.2185,0.3264,-0.0319,-0.1674,0.0116,49.27916203,-122.98351930,0.00000000,
6.8820,0.3008,0.9724,0.0983,0.3787,0.2185,0.3264,-0.0319,-0.1674,0.0116,49.27916203,-122.98351930,0.00000000,
6.9010,0.3008,0.9724,0.0983,0.3787,0.2185,0.3264,-0.0363,0.0569,0.0973,49.27916203,-122.98351930,0.00000000,
6.9200,0.3008,0.9724,0.0983,1.1224,0.0129,-0.3509,-0.0363,0.0569,0.0973,49.27916203,-122.98351930,0.00000000,
6.9390,0.2316,0.9622,0.0881,1.1224,0.0129,-0.3509,-0.0363,0.0569,0.0973,49.27916203,-122.98351930,0.00000000,
6.9580,0.2316,0.9622,0.0881,1.1224,0.0129,-0.3509,-0.0047,0.1667,0.1291,49.27916203,-122.98351930,0.00000000,
6.9780,0.2316,0.9622,0.0881,0.4160,-0.2676,-0.3919,-0.0047,0.1667,0.1291,49.27916203,-122.98351930,0.00000000,
7.0150,0.1840,0.9896,0.1430,0.4160,-0.2676,-0.3919,-0.0047,0.1667,0.1291,49.27916203,-122.98351930,0.00000000,
7.0340,0.1840,0.9896,0.1430,0.4160,-0.2676,-0.3919,0.0906,0.1052,0.0549,49.27916203,-122.98351930,0.00000000,
7.0530,0.1840,0.9896,0.1430,-0.1234,0.1021,0.0840,0.0906,0.1052,0.0549,49.27916203,-122.98351930,0.00000000,
7.0720,0.2175,0.9929,0.1007,-0.1234,0.1021,0.0840,0.0906,0.1052,0.0549,49.27916203,-122.98351930,0.00000000,
7.0920,0.2175,0.9929,0.1007,-0.1234,0.1021,0.0840,-0.0045,-0.1128,0.0421,49.27916203,-122.98351930,0.00000000,
7.1110,0.2175,0.9929,0.1007,-0.3293,0.3334,0.0218,-0.0045,-0.1128,0.0421,49.27916203,-122.98351930,0.00000000,
7.1480,0.2826,0.9667,0.1099,-0.3293,0.3334,0.0218,-0.0045,-0.1128,0.0421,49.27916203,-122.98351930,0.00000000,
7.1680,0.2826,0.9667,0.1099,-0.3293,0.3334,0.0218,0.0081,-0.0159,-0.0116,49.27916203,-122.98351930,0.00000000,
7.1860,0.2826,0.9667,0.1099,0.5285,-0.0869,-0.2497,0.0081,-0.0159,-0.0116,49.27916203,-122.98351930,0.00000000,
7.2060,0.2799,0.9929,0.1019,0.5285,-0.0869,-0.2497,0.0081,-0.0159,-0.0116,49.27916203,-122.98351930,0.00000000,
7.2240,0.2799,0.9929,0.1019,0.5285,-0.0869,-0.2497,-0.0092,0.0707,-0.0210,49.27916203,-122.98351930,0.00000000,
7.2430,0.2799,0.9929,0.1019,0.5958,-0.0492,-0.1602,-0.0092,0.0707,-0.0210,49.27916203,-122.98351930,0.00000000,
7.2810,0.2909,0.9760,0.0943,0.5958,-0.0492,-0.1602,-0.0092,0.0707,-0.0210,49.27916203,-122.98351930,0.00000000,
7.3010,0.2909,0.9760,0.0943,0.5958,-0.0492,-0.1602,-0.0251,0.1228,-0.0669,49.27916203,-122.98351930,0.00000000,
7.3200,0.2909,0.9760,0.0943,0.8568,0.0338,-0.3115,-0.0251,0.1228,-0.0669,49.27916203,-122.98351930,0.00000000,
7.3390,0.2549,0.9828,0.1061,0.8568,0.0338,-0.3115,-0.0251,0.1228,-0.0669,49.27916203,-122.98351930,0.00000000,
7.3580,0.2549,0.9828,0.1061,0.8568,0.0338,-0.3115,0.0227,0.0728,-0.0401,49.27916203,-122.98351930,0.00000000,
7.3760,0.2549,0.9828,0.1061,0.6035,-0.0555,-0.1879,0.0227,0.0728,-0.0401,49.27916203,-122.98351930,0.00000000,
7.4150,0.2190,1.0013,0.1136,0.6035,-0.0555,-0.1879,0.0227,0.0728,-0.0401,49.27916203,-122.98351930,0.00000000,
7.4340,0.2190,1.0013,0.1136,0.6035,-0.0555,-0.1879,-0.0450,-0.0499,0.0310,49.27916203,-122.98351930,0.00000000,
7.4530,0.2190,1.0013,0.1136,0.1854,0.2085,-0.3346,-0.0450,-0.0499,0.0310,49.27916203,-122.98351930,0.00000000,
7.4720,0.2009,0.9856,0.0950,0.1854,0.2085,-0.3346,-0.0450,-0.0499,0.0310,49.27916203,-122.98351930,0.00000000,
7.4910,0.2009,0.9856,0.0950,0.1854,0.2085,-0.3346,0.0217,-0.1677,-0.0107,49.27916203,-122.98351930,0.00000000,
7.5100,0.2009,0.9856,0.0950,-0.0426,0.1141,-0.0080,0.0217,-0.1677,-0.0107,49.27916203,-122.98351930,0.00000000,
7.5480,0.2174,0.9809,0.1162,-0.0426,0.1141,-0.0080,0.0217,-0.1677,-0.0107,49.27916203,-122.98351930,0.00000000,
7.5680,0.2174,0.9809,0.1162,-0.0426,0.1141,-0.0080,0.0192,-0.2828,-0.0212,49.27916203,-122.98351930,0.00000000,
7.5870,0.2174,0.9809,0.1162,-0.1955,0.0722,-0.0352,0.0192,-0.2828,-0.0212,49.27916203,-122.98351930,0.00000000,
7.6150,0.2505,0.9883,0.0891,-0.1955,0.0722,-0.0352,0.0192,-0.2828,-0.0212,49.27916203,-122.98351930,0.00000000,
7.6340,0.2505,0.9883,0.0891,-0.1955,0.0722,-0.0352,-0.0101,-0.0623,-0.0278,49.27916203,-122.98351930,0.00000000,
7.6540,0.2505,0.9883,0.0891,0.3851,-0.0878,-0.0794,-0.0101,-0.0623,-0.0278,49.27916203,-122.98351930,0.00000000,
7.6720,0.2162,0.9857,0.0978,0.3851,-0.0878,-0.0794,-0.0101,-0.0623,-0.0278,49.27916203,-122.98351930,0.00000000,
7.6910,0.2162,0.9857,0.0978,0.3851,-0.0878,-0.0794,-0.0340,-0.0698,-0.0032,49.27916203,-122.98351930,0.00000000,
7.7100,0.2162,0.9857,0.0978,0.0428,-0.0066,-0.1985,-0.0340,-0.0698,-0.0032,49.27916203,-122.98351930,0.00000000,
7.7490,0.2353,0.9827,0.1174,0.0428,-0.0066,-0.1985,-0.0340,-0.0698,-0.0032,49.27916203,-122.98351930,0.00000000,
7.7680,0.2353,0.9827,0.1174,0.0428,-0.0066,-0.1985,-0.0221,-0.0887,-0.0106,49.27916203,-122.98351930,0.00000000,
7.7870,0.2353,0.9827,0.1174,0.1181,0.0742,-0.0363,-0.0221,-0.0887,-0.0106,49.27916203,-122.98351930,0.00000000,
7.8060,0.2355,0.9994,0.1195,0.1181,0.0742,-0.0363,-0.0221,-0.0887,-0.0106,49.27916203,-122.98351930,0.00000000,
7.8270,0.2355,0.9994,0.1195,0.1181,0.0742,-0.0363,-0.0185,-0.0693,-0.0114,49.27916203,-122.98351930,0.00000000,
7.8440,0.2355,0.9994,0.1195,0.1514,-0.0495,0.0019,-0.0185,-0.0693,-0.0114,49.27916203,-122.98351930,0.00000000,
7.8820,0.2558,0.9734,0.0970,0.1514,-0.0495,0.0019,-0.0185,-0.0693,-0.0114,49.27916203,-122.98351930,0.00000000,
7.9010,0.2558,0.9734,0.0970,0.1514,-0.0495,0.0019,-0.0893,0.1040,-0.0415,49.27916203,-122.98351930,0.00000000,
7.9200,0.2558,0.9734,0.0970,0.2571,0.1135,-0.1246,-0.0893,0.1040,-0.0415,49.27916203,-122.98351930,0.00000000,
7.9380,0.2518,0.9904,0.1422,0.2571,0.1135,-0.1246,-0.0893,0.1040,-0.0415,49.27916203,-122.98351930,0.00000000,
7.9590,0.2518,0.9904,0.1422,0.2571,0.1135,-0.1246,-0.0272,0.1553,0.0202,49.27916203,-122.98351930,0.00000000,
7.9760,0.2518,0.9904,0.1422,0.3148,-0.0905,0.0861,-0.0272,0.1553,0.0202,49.27916203,-122.98351930,0.00000000,
8.0140,0.2018,1.0004,0.1213,0.3148,-0.0905,0.0861,-0.0272,0.1553,0.0202,49.27916203,-122.98351930,0.00000000,
8.0340,0.2018,1.0004,0.1213,0.3148,-0.0905,0.0861,0.0285,-0.0229,0.0437,49.27916203,-122.98351930,0.00000000,
8.0520,0.2018,1.0004,0.1213,-0.0516,0.1251,0.0990,0.0285,-0.0229,0.0437,49.27916203,-122.98351930,0.00000000,
8.0720,0.1634,1.0229,0.0728,-0.0516,0.1251,0.0990,0.0285,-0.0229,0.0437,49.27916203,-122.98351930,0.00000000,
8.0910,0.1634,1.0229,0.0728,-0.0516,0.1251,0.0990,-0.0541,-0.3098,0.1324,49.27916203,-122.98351930,0.00000000,
8.1100,0.1634,1.0229,0.0728,-0.4983,0.3915,-0.1703,-0.0541,-0.3098,0.1324,49.27916203,-122.98351930,0.00000000,
8.1490,0.1848,0.9566,0.0902,-0.4983,0.3915,-0.1703,-0.0541,-0.3098,0.1324,49.27916203,-122.98351930,0.00000000,
8.1670,0.1848,0.9566,0.0902,-0.4983,0.3915,-0.1703,-0.0729,-0.2582,0.0484,49.27916203,-122.98351930,0.00000000,
8.1850,0.1848,0.9566,0.0902,-0.6775,0.0326,-0.6410,-0.0729,-0.2582,0.0484,49.27916203,-122.98351930,0.00000000,
8.2050,0.2774,0.9417,0.0781,-0.6775,0.0326,-0.6410,-0.0729,-0.2582,0.0484,49.27916203,-122.98351930,0.00000000,
8.2230,0.2774,0.9417,0.0781,-0.6775,0.0326,-0.6410,-0.0486,0.0410,-0.1038,49.27916203,-122.98351930,0.00000000,
8.2430,0.2774,0.9417,0.0781,0.2299,-0.6012,-0.0362,-0.0486,0.0410,-0.1038,49.27916203,-122.98351930,0.00000000,
8.2810,0.2902,0.9900,0.1429,0.2299,-0.6012,-0.0362,-0.0486,0.0410,-0.1038,49.27916203,-122.98351930,0.00000000,
8.3000,0.2902,0.9900,0.1429,0.2299,-0.6012,-0.0362,-0.1075,0.5054,-0.0795,49.27916203,-122.98351930,0.00000000,
8.3190,0.2902,0.9900,0.1429,0.8547,0.0259,-0.2176,-0.1075,0.5054,-0.0795,49.27916203,-122.98351930,0.00000000,
8.3380,0.1880,0.9928,0.1698,0.8547,0.0259,-0.2176,-0.1075,0.5054,-0.0795,49.27916203,-122.98351930,0.00000000,
8.3560,0.1880,0.9928,0.1698,0.8547,0.0259,-0.2176,-0.0568,0.0248,0.1207,49.27916203,-122.98351930,0.00000000,
8.3770,0.1880,0.9928,0.1698,0.1201,-0.0978,0.2601,-0.0568,0.0248,0.1207,49.27916203,-122.98351930,0.00000000,
8.4140,0.2347,0.9685,0.1361,0.1201,-0.0978,0.2601,-0.0568,0.0248,0.1207,49.27916203,-122.98351930,0.00000000,
8.4340,0.2347,0.9685,0.1361,0.1201,-0.0978,0.2601,0.0439,-0.3180,0.0060,49.27916203,-122.98351930,0.00000000,
8.4520,0.2347,0.9685,0.1361,-0.3518,0.1017,0.4458,0.0439,-0.3180,0.0060,49.27916203,-122.98351930,0.00000000,
8.4710,0.2758,0.9710,0.1510,-0.3518,0.1017,0.4458,0.0439,-0.3180,0.0060,49.27916203,-122.98351930,0.00000000,
8.4910,0.2758,0.9710,0.1510,-0.3518,0.1017,0.4458,0.1636,-0.7736,-0.0893,49.27916203,-122.98351930,0.00000000,
8.5100,0.2758,0.9710,0.1510,0.5151,-0.3529,0.2994,0.1636,-0.7736,-0.0893,49.27916203,-122.98351930,0.00000000,
8.5470,0.1994,0.9515,0.0951,0.5151,-0.3529,0.2994,0.1636,-0.7736,-0.0893,49.27916203,-122.98351930,0.00000000,
8.5660,0.1994,0.9515,0.0951,0.5151,-0.3529,0.2994,0.1282,-0.5269,-0.1579,49.27916203,-122.98351930,0.00000000,
8.5870,0.1994,0.9515,0.0951,0.1832,-0.1253,0.3175,0.1282,-0.5269,-0.1579,49.27916203,-122.98351930,0.00000000,
8.6150,0.2838,1.0415,0.1053,0.1832,-0.1253,0.3175,0.1282,-0.5269,-0.1579,49.27916203,-122.98351930,0.00000000,
8.6320,0.2838,1.0415,0.1053,0.1832,-0.1253,0.3175,0.1145,0.0415,-0.0319,49.27916203,-122.98351930,0.00000000,
8.6520,0.2838,1.0415,0.1053,0.0592,-0.0068,0.1831,0.1145,0.0415,-0.0319,49.27916203,-122.98351930,0.00000000,
8.6720,0.3024,0.9702,0.1230,0.0592,-0.0068,0.1831,0.1145,0.0415,-0.0319,49.27916203,-122.98351930,0.00000000,
8.6900,0.3024,0.9702,0.1230,0.0592,-0.0068,0.1831,-0.0275,0.1733,0.0701,49.27916203,-122.98351930,0.00000000,
8.7100,0.3024,0.9702,0.1230,0.9869,0.3009,0.2276,-0.0275,0.1733,0.0701,49.27916203,-122.98351930,0.00000000,
8.7470,0.2672,0.9850,0.0718,0.9869,0.3009,0.2276,-0.0275,0.1733,0.0701,49.27916203,-122.98351930,0.00000000,
8.7680,0.2672,0.9850,0.0718,0.9869,0.3009,0.2276,0.0187,0.1686,0.0545,49.27916203,-122.98351930,0.00000000,
8.7850,0.2672,0.9850,0.0718,0.5223,-0.3522,0.0469,0.0187,0.1686,0.0545,49.27916203,-122.98351930,0.00000000,
8.8050,0.2617,0.9945,0.0903,0.5223,-0.3522,0.0469,0.0187,0.1686,0.0545,49.27916203,-122.98351930,0.00000000,
8.8240,0.2617,0.9945,0.0903,0.5223,-0.3522,0.0469,-0.0328,0.0984,0.0041,49.27916203,-122.98351930,0.00000000,
8.8440,0.2617,0.9945,0.0903,0.4073,0.1978,0.0800,-0.0328,0.0984,0.0041,49.27916203,-122.98351930,0.00000000,
8.8810,0.2317,0.9697,0.0870,0.4073,0.1978,0.0800,-0.0328,0.0984,0.0041,49.27916203,-122.98351930,0.00000000,
8.9000,0.2317,0.9697,0.0870,0.4073,0.1978,0.0800,-0.0137,0.0183,0.0223,49.27916203,-122.98351930,0.00000000,
8.9190,0.2317,0.9697,0.0870,0.1786,-0.1029,-0.1434,-0.0137,0.0183,0.0223,49.27916203,-122.98351930,0.00000000,
8.9370,0.2603,0.9764,0.0843,0.1786,-0.1029,-0.1434,-0.0137,0.0183,0.0223,49.27916203,-122.98351930,0.00000000,
8.9570,0.2603,0.9764,0.0843,0.1786,-0.1029,-0.1434,0.0189,0.0644,-0.0280,49.27916203,-122.98351930,0.00000000,
8.9760,0.2603,0.9764,0.0843,0.1072,-0.1664,-0.1002,0.0189,0.0644,-0.0280,49.27916203,-122.98351930,0.00000000,
9.0130,0.2836,0.9772,0.0912,0.1072,-0.1664,-0.1002,0.0189,0.0644,-0.0280,49.27916203,-122.98351930,0.00000000,
9.0340,0.2836,0.9772,0.0912,0.1072,-0.1664,-0.1002,-0.0211,0.2091,-0.0057,49.27916203,-122.98351930,0.00000000,
9.0520,0.2836,0.9772,0.0912,0.5020,-0.0759,-0.0392,-0.0211,0.2091,-0.0057,49.27916203,-122.98351930,0.00000000,
9.0720,0.2713,0.9897,0.1222,0.5020,-0.0759,-0.0392,-0.0211,0.2091,-0.0057,49.27916203,-122.98351930,0.00000000,
9.0910,0.2713,0.9897,0.1222,0.5020,-0.0759,-0.0392,-0.0443,0.5772,0.1067,49.27916203,-122.98351930,0.00000000,
9.1090,0.2713,0.9897,0.1222,0.4180,-0.0259,-0.0592,-0.0443,0.5772,0.1067,49.27916203,-122.98351930,0.00000000,
9.1460,0.2145,0.9723,0.1302,0.4180,-0.0259,-0.0592,-0.0443,0.5772,0.1067,49.27916203,-122.98351930,0.00000000,
9.1670,0.2145,0.9723,0.1302,0.4180,-0.0259,-0.0592,-0.0530,0.5231,0.0704,49.27916203,-122.98351930,0.00000000,
9.1860,0.2145,0.9723,0.1302,0.0338,0.0854,0.0641,-0.0530,0.5231,0.0704,49.27916203,-122.98351930,0.00000000,
9.2050,0.2038,1.0028,0.1295,0.0338,0.0854,0.0641,-0.0530,0.5231,0.0704,49.27916203,-122.98351930,0.00000000,
9.2240,0.2038,1.0028,0.1295,0.0338,0.0854,0.0641,0.0442,0.1050,-0.1041,49.27916203,-122.98351930,0.00000000,
9.2420,0.2038,1.0028,0.1295,-0.2847,-0.0279,0.2163,0.0442,0.1050,-0.1041,49.27916203,-122.98351930,0.00000000,
9.2810,0.3606,0.9830,0.1177,-0.2847,-0.0279,0.2163,0.0442,0.1050,-0.1041,49.27916203,-122.98351930,0.00000000,
9.2990,0.3606,0.9830,0.1177,-0.2847,-0.0279,0.2163,-0.1281,0.4698,-0.1788,49.27916203,-122.98351930,0.00000000,
9.3180,0.3606,0.9830,0.1177,0.6553,0.1799,-0.3043,-0.1281,0.4698,-0.1788,49.27916203,-122.98351930,0.00000000,
9.3380,0.0787,0.9901,0.1981,0.6553,0.1799,-0.3043,-0.1281,0.4698,-0.1788,49.27916203,-122.98351930,0.00000000,
9.3570,0.0787,0.9901,0.1981,0.6553,0.1799,-0.3043,0.1603,-0.3245,0.0762,49.27916203,-122.98351930,0.00000000,
9.3750,0.0787,0.9901,0.1981,-0.1305,-0.4174,0.5852,0.1603,-0.3245,0.0762,49.27916203,-122.98351930,0.00000000,
9.4130,0.1199,1.0280,0.1210,-0.1305,-0.4174,0.5852,0.1603,-0.3245,0.0762,49.27916203,-122.98351930,0.00000000,
9.4330,0.1199,1.0280,0.1210,-0.1305,-0.4174,0.5852,-0.1171,-0.5657,-0.0170,49.27916203,-122.98351930,0.00000000,
9.4520,0.1199,1.0280,0.1210,-1.1431,0.6383,0.3605,-0.1171,-0.5657,-0.0170,49.27916203,-122.98351930,0.00000000,
9.4710,0.1060,0.9853,0.1531,-1.1431,0.6383,0.3605,-0.1171,-0.5657,-0.0170,49.27916203,-122.98351930,0.00000000,
9.4900,0.1060,0.9853,0.1531,-1.1431,0.6383,0.3605,-0.2448,-0.5566,-0.0746,49.27916203,-122.98351930,0.00000000,
9.5080,0.1060,0.9853,0.1531,-1.4613,0.0388,0.0990,-0.2448,-0.5566,-0.0746,49.27916203,-122.98351930,0.00000000,
9.5460,0.1297,1.0032,0.1625,-1.4613,0.0388,0.0990,-0.2448,-0.5566,-0.0746,49.27916203,-122.98351930,0.00000000,
9.5670,0.1297,1.0032,0.1625,-1.4613,0.0388,0.0990,-0.7911,-0.9214,-0.1271,49.27916203,-122.98351930,0.00000000,
9.5850,0.1297,1.0032,0.1625,-0.8470,0.1261,-0.2706,-0.7911,-0.9214,-0.1271,49.27916203,-122.98351930,0.00000000,
9.6140,0.1327,1.0548,0.2487,-0.8470,0.1261,-0.2706,-0.7911,-0.9214,-0.1271,49.27916203,-122.98351930,0.00000000,
9.6320,0.1327,1.0548,0.2487,-0.8470,0.1261,-0.2706,-0.9093,-0.8407,-0.3010,49.27916203,-122.98351930,0.00000000,
9.6520,0.1327,1.0548,0.2487,-0.8248,0.4706,0.0187,-0.9093,-0.8407,-0.3010,49.27916203,-122.98351930,0.00000000,
9.6700,0.0864,1.1088,0.1361,-0.8248,0.4706,0.0187,-0.9093,-0.8407,-0.3010,49.27916203,-122.98351930,0.00000000,
9.6910,0.0864,1.1088,0.1361,-0.8248,0.4706,0.0187,-1.0362,-0.4484,-0.3640,49.27916203,-122.98351930,0.00000000,
9.7080,0.0864,1.1088,0.1361,-0.9422,1.1521,0.1429,-1.0362,-0.4484,-0.3640,49.27916203,-122.98351930,0.00000000,
9.7460,0.1850,0.8475,0.3943,-0.9422,1.1521,0.1429,-1.0362,-0.4484,-0.3640,49.27916203,-122.98351930,0.00000000,
9.7670,0.1850,0.8475,0.3943,-0.9422,1.1521,0.1429,-0.7101,-1.3911,-0.5965,49.27916203,-122.98351930,0.00000000,
9.7840,0.1850,0.8475,0.3943,-0.2346,0.1274,-1.0160,-0.7101,-1.3911,-0.5965,49.27916203,-122.98351930,0.00000000,
9.8030,0.1929,0.9301,0.2645,-0.2346,0.1274,-1.0160,-0.7101,-1.3911,-0.5965,49.27916203,-122.98351930,0.00000000,
9.8220,0.1929,0.9301,0.2645,-0.2346,0.1274,-1.0160,-0.5417,-1.1535,-0.5757,49.27916203,-122.98351930,0.00000000,
9.8430,0.1929,0.9301,0.2645,0.1778,-0.9280,-0.0882,-0.5417,-1.1535,-0.5757,49.27916203,-122.98351930,0.00000000,
9.8810,0.2407,0.9241,0.3472,0.1778,-0.9280,-0.0882,-0.5417,-1.1535,-0.5757,49.27916203,-122.98351930,0.00000000,
9.8990,0.2407,0.9241,0.3472,0.1778,-0.9280,-0.0882,-0.4937,-0.9722,-0.6804,49.27916203,-122.98351930,0.00000000,
9.9180,0.2407,0.9241,0.3472,0.6102,0.1933,-0.5242,-0.4937,-0.9722,-0.6804,49.27916203,-122.98351930,0.00000000,
9.9370,0.1922,0.9022,0.3938,0.6102,0.1933,-0.5242,-0.4937,-0.9722,-0.6804,49.27916203,-122.98351930,0.00000000,
9.9570,0.1922,0.9022,0.3938,0.6102,0.1933,-0.5242,-0.3911,-0.6463,-0.6169,49.27916203,-122.98351930,0.00000000,
9.9750,0.1922,0.9022,0.3938,1.0475,-0.2916,0.1233,-0.3911,-0.6463,-0.6169,49.27916203,-122.98351930,0.00000000,
10.0130,0.1466,0.9379,0.3332,1.0475,-0.2916,0.1233,-0.3911,-0.6463,-0.6169,49.27916203,-122.98351930,0.00000000,
10.0320,0.1466,0.9379,0.3332,1.0475,-0.2916,0.1233,-0.5016,-0.5212,-0.4755,49.27916203,-122.98351930,0.00000000,
10.0510,0.1466,0.9379,0.3332,0.4558,-0.2033,-0.0964,-0.5016,-0.5212,-0.4755,49.27916203,-122.98351930,0.00000000,
10.0710,0.1085,0.8625,0.4618,0.4558,-0.2033,-0.0964,-0.5016,-0.5212,-0.4755,49.27916203,-122.98351930,0.00000000,
10.0890,0.1085,0.8625,0.4618,0.4558,-0.2033,-0.0964,-0.1909,-0.6617,-0.5171,49.27916203,-122.98351930,0.00000000,
10.1080,0.1085,0.8625,0.4618,0.3452,-0.7044,0.3343,-0.1909,-0.6617,-0.5171,49.27916203,-122.98351930,0.00000000,
10.1500,0.1019,0.7943,0.4656,0.3452,-0.7044,0.3343,-0.1909,-0.6617,-0.5171,49.27916203,-122.98351930,0.00000000,
10.1650,0.1019,0.7943,0.4656,0.3452,-0.7044,0.3343,0.0444,-0.7784,-0.4832,49.27916203,-122.98351930,0.00000000,
10.1860,0.1019,0.7943,0.4656,0.2609,-0.8769,0.2612,0.0444,-0.7784,-0.4832,49.27916203,-122.98351930,0.00000000,
10.2040,0.0984,0.8762,0.4931,0.2609,-0.8769,0.2612,0.0444,-0.7784,-0.4832,49.27916203,-122.98351930,0.00000000,
10.2220,0.0984,0.8762,0.4931,0.2609,-0.8769,0.2612,0.4369,-0.6107,-0.3689,49.27916203,-122.98351930,0.00000000,
10.2420,0.0984,0.8762,0.4931,0.2126,-1.2274,1.4735,0.4369,-0.6107,-0.3689,49.27916203,-122.98351930,0.00000000,
10.2800,0.0940,0.9201,0.4871,0.2126,-1.2274,1.4735,0.4369,-0.6107,-0.3689,49.27916203,-122.98351930,0.00000000,
10.2990,0.0940,0.9201,0.4871,0.2126,-1.2274,1.4735,0.6067,-0.2501,-0.0950,49.27916203,-122.98351930,0.00000000,
10.3170,0.0940,0.9201,0.4871,0.2918,-0.9898,1.9393,0.6067,-0.2501,-0.0950,49.27916203,-122.98351930,0.00000000,
10.3360,0.2582,1.0494,0.3276,0.2918,-0.9898,1.9393,0.6067,-0.2501,-0.0950,49.27916203,-122.98351930,0.00000000,
10.3560,0.2582,1.0494,0.3276,0.2918,-0.9898,1.9393,0.3845,-0.0775,0.0561,49.27916203,-122.98351930,0.00000000,
10.3740,0.2582,1.0494,0.3276,0.1803,1.8385,1.0532,0.3845,-0.0775,0.0561,49.27916203,-122.98351930,0.00000000,
10.4120,0.3073,0.9880,0.1438,0.1803,1.8385,1.0532,0.3845,-0.0775,0.0561,49.27916203,-122.98351930,0.00000000,
10.4320,0.3073,0.9880,0.1438,0.1803,1.8385,1.0532,1.1319,0.7505,0.0415,49.27916203,-122.98351930,0.00000000,
10.4520,0.3073,0.9880,0.1438,2.9151,-1.1177,0.9466,1.1319,0.7505,0.0415,49.27916203,-122.98351930,0.00000000,
10.4700,0.0954,0.9928,0.0072,2.9151,-1.1177,0.9466,1.1319,0.7505,0.0415,49.27916203,-122.98351930,0.00000000,
10.4890,0.0954,0.9928,0.0072,2.9151,-1.1177,0.9466,1.0443,0.1132,0.1685,49.27916203,-122.98351930,0.00000000,
10.5080,0.0954,0.9928,0.0072,0.6630,-0.1625,-1.6184,1.0443,0.1132,0.1685,49.27916203,-122.98351930,0.00000000,
10.5460,0.1937,1.0116,0.0793,0.6630,-0.1625,-1.6184,1.0443,0.1132,0.1685,49.27916203,-122.98351930,0.00000000,
10.5650,0.1937,1.0116,0.0793,0.6630,-0.1625,-1.6184,1.1909,0.6190,-0.1380,49.27916203,-122.98351930,0.00000000,
10.5840,0.1937,1.0116,0.0793,1.1679,0.0360,0.2199,1.1909,0.6190,-0.1380,49.27916203,-122.98351930,0.00000000,
10.6130,-0.0498,0.9981,0.0054,1.1679,0.0360,0.2199,1.1909,0.6190,-0.1380,49.27916203,-122.98351930,0.00000000,
10.6320,-0.0498,0.9981,0.0054,1.1679,0.0360,0.2199,0.8823,0.6318,-0.0441,49.27916203,-122.98351930,0.00000000,
10.6510,-0.0498,0.9981,0.0054,-0.3145,-0.1514,0.1662,0.8823,0.6318,-0.0441,49.27916203,-122.98351930,0.00000000,
10.6700,-0.0271,1.0165,0.0591,-0.3145,-0.1514,0.1662,0.8823,0.6318,-0.0441,49.27916203,-122.98351930,0.00000000,
10.6880,-0.0271,1.0165,0.0591,-0.3145,-0.1514,0.1662,0.6294,0.1059,0.0209,49.27916203,-122.98351930,0.00000000,
10.7070,-0.0271,1.0165,0.0591,-1.3672,-0.1253,0.4946,0.6294,0.1059,0.0209,49.27916203,-122.98351930,0.00000000,
10.7470,0.0488,0.9723,0.0700,-1.3672,-0.1253,0.4946,0.6294,0.1059,0.0209,49.27916203,-122.98351930,0.00000000,
10.7650,0.0488,0.9723,0.0700,-1.3672,-0.1253,0.4946,0.6086,0.2796,0.0990,49.27916203,-122.98351930,0.00000000,
10.7840,0.0488,0.9723,0.0700,-0.5350,-0.1662,1.5798,0.6086,0.2796,0.0990,49.27916203,-122.98351930,0.00000000,
10.8020,0.0730,0.9876,0.0228,-0.5350,-0.1662,1.5798,0.6086,0.2796,0.0990,49.27916203,-122.98351930,0.00000000,
10.8220,0.0730,0.9876,0.0228,-0.5350,-0.1662,1.5798,0.5722,0.5110,0.1497,49.27916203,-122.98351930,0.00000000,
10.8410,0.0730,0.9876,0.0228,-0.2200,-0.2836,1.2403,0.5722,0.5110,0.1497,49.27916203,-122.98351930,0.00000000,
10.8800,-0.0260,0.9458,-0.0342,-0.2200,-0.2836,1.2403,0.5722,0.5110,0.1497,49.27916203,-122.98351930,0.00000000,
10.8980,-0.0260,0.9458,-0.0342,-0.2200,-0.2836,1.2403,0.7320,0.5025,0.2462,49.27916203,-122.98351930,0.00000000,
10.9160,-0.0260,0.9458,-0.0342,-0.9048,-0.2882,1.5067,0.7320,0.5025,0.2462,49.27916203,-122.98351930,0.00000000,
10.9350,0.0082,0.9934,-0.0652,-0.9048,-0.2882,1.5067,0.7320,0.5025,0.2462,49.27916203,-122.98351930,0.00000000,
10.9550,0.0082,0.9934,-0.0652,-0.9048,-0.2882,1.5067,0.4482,0.4307,0.2952,49.27916203,-122.98351930,0.00000000,
10.9730,0.0082,0.9934,-0.0652,-1.7988,-0.3881,0.9714,0.4482,0.4307,0.2952,49.27916203,-122.98351930,0.00000000,
11.0120,-0.0446,1.0025,0.0756,-1.7988,-0.3881,0.9714,0.4482,0.4307,0.2952,49.27916203,-122.98351930,0.00000000,
11.0310,-0.0446,1.0025,0.0756,-1.7988,-0.3881,0.9714,0.0980,0.9524,0.1244,49.27916203,-122.98351930,0.00000000,
11.0510,-0.0446,1.0025,0.0756,-1.0946,0.1632,1.3048,0.0980,0.9524,0.1244,49.27916203,-122.98351930,0.00000000,
11.0690,-0.2367,1.3798,-0.0747,-1.0946,0.1632,1.3048,0.0980,0.9524,0.1244,49.27916203,-122.98351930,0.00000000,
11.0890,-0.2367,1.3798,-0.0747,-1.0946,0.1632,1.3048,-0.6808,0.2551,-0.0573,49.27916203,-122.98351930,0.00000000,
11.1070,-0.2367,1.3798,-0.0747,-3.0709,1.6040,1.1980,-0.6808,0.2551,-0.0573,49.27916203,-122.98351930,0.00000000,
11.1450,0.1296,1.3995,-0.0415,-3.0709,1.6040,1.1980,-0.6808,0.2551,-0.0573,49.27916203,-122.98351930,0.00000000,
11.1640,0.1296,1.3995,-0.0415,-3.0709,1.6040,1.1980,-2.1286,-0.8380,-0.1755,49.27916203,-122.98351930,0.00000000,
11.1820,0.1296,1.3995,-0.0415,-1.8708,4.6124,-2.3750,-2.1286,-0.8380,-0.1755,49.27916203,-122.98351930,0.00000000,
11.2020,0.3681,1.2278,-0.0558,-1.8708,4.6124,-2.3750,-2.1286,-0.8380,-0.1755,49.27916203,-122.98351930,0.00000000,
11.2210,0.3681,1.2278,-0.0558,-1.8708,4.6124,-2.3750,-1.9408,-0.2025,-0.3170,49.27916203,-122.98351930,0.00000000,
11.2400,0.3681,1.2278,-0.0558,2.1653,2.6195,-1.8100,-1.9408,-0.2025,-0.3170,49.27916203,-122.98351930,0.00000000,
11.2780,0.0215,0.9981,-0.0236,2.1653,2.6195,-1.8100,-1.9408,-0.2025,-0.3170,49.27916203,-122.98351930,0.00000000,
11.2960,0.0215,0.9981,-0.0236,2.1653,2.6195,-1.8100,-1.5674,-1.1518,-0.7103,49.27916203,-122.98351930,0.00000000,
11.3160,0.0215,0.9981,-0.0236,1.1581,1.0111,-2.6497,-1.5674,-1.1518,-0.7103,49.27916203,-122.98351930,0.00000000,
11.3350,0.0140,0.8657,-0.0064,1.1581,1.0111,-2.6497,-1.5674,-1.1518,-0.7103,49.27916203,-122.98351930,0.00000000,
11.3550,0.0140,0.8657,-0.0064,1.1581,1.0111,-2.6497,-1.4004,-2.3669,-0.8085,49.27916203,-122.98351930,0.00000000,
11.3740,0.0140,0.8657,-0.0064,-1.3659,-0.3760,-3.9793,-1.4004,-2.3669,-0.8085,49.27916203,-122.98351930,0.00000000,
11.4120,0.3364,0.7394,0.2256,-1.3659,-0.3760,-3.9793,-1.4004,-2.3669,-0.8085,49.27916203,-122.98351930,0.00000000,
11.4300,0.3364,0.7394,0.2256,-1.3659,-0.3760,-3.9793,-0.7908,-1.1670,-0.6530,49.27916203,-122.98351930,0.00000000,
11.4490,0.3364,0.7394,0.2256,1.8470,-1.4500,-2.1917,-0.7908,-1.1670,-0.6530,49.27916203,-122.98351930,0.00000000,
11.4690,0.2303,0.7004,0.2263,1.8470,-1.4500,-2.1917,-0.7908,-1.1670,-0.6530,49.27916203,-122.98351930,0.00000000,
11.4870,0.2303,0.7004,0.2263,1.8470,-1.4500,-2.1917,-0.2291,-0.0880,-0.4352,49.27916203,-122.98351930,0.00000000,
11.5060,0.2303,0.7004,0.2263,2.7830,-2.5569,-1.3831,-0.2291,-0.0880,-0.4352,49.27916203,-122.98351930,0.00000000,
11.5450,0.0003,0.7570,0.3727,2.7830,-2.5569,-1.3831,-0.2291,-0.0880,-0.4352,49.27916203,-122.98351930,0.00000000,
11.5640,0.0003,0.7570,0.3727,2.7830,-2.5569,-1.3831,0.1901,-0.5468,-0.1905,49.27916203,-122.98351930,0.00000000,
11.5830,0.0003,0.7570,0.3727,0.4174,-1.9985,-0.5431,0.1901,-0.5468,-0.1905,49.27916203,-122.98351930,0.00000000,
11.6120,0.1177,0.9322,0.4913,0.4174,-1.9985,-0.5431,0.1901,-0.5468,-0.1905,49.27916203,-122.98351930,0.00000000,
11.6310,0.1177,0.9322,0.4913,0.4174,-1.9985,-0.5431,0.2175,-0.4592,-0.1952,49.27916203,-122.98351930,0.00000000,
11.6500,0.1177,0.9322,0.4913,-0.0436,-1.5023,0.7573,0.2175,-0.4592,-0.1952,49.27916203,-122.98351930,0.00000000,
11.6690,0.1482,1.1143,0.7778,-0.0436,-1.5023,0.7573,0.2175,-0.4592,-0.1952,49.27916203,-122.98351930,0.00000000,
11.6880,0.1482,1.1143,0.7778,-0.0436,-1.5023,0.7573,-0.2141,0.2417,-0.3998,49.27916203,-122.98351930,0.00000000,
11.7060,0.1482,1.1143,0.7778,1.5204,2.1585,3.4623,-0.2141,0.2417,-0.3998,49.27916203,-122.98351930,0.00000000,
11.7450,-0.0201,1.1111,0.3380,1.5204,2.1585,3.4623,-0.2141,0.2417,-0.3998,49.27916203,-122.98351930,0.00000000,
11.7630,-0.0201,1.1111,0.3380,1.5204,2.1585,3.4623,0.0048,-0.1063,0.0957,49.27916203,-122.98351930,0.00000000,
11.7830,-0.0201,1.1111,0.3380,0.5796,-0.7586,1.8458,0.0048,-0.1063,0.0957,49.27916203,-122.98351930,0.00000000,
11.8020,0.5041,0.8375,0.1690,0.5796,-0.7586,1.8458,0.0048,-0.1063,0.0957,49.27916203,-122.98351930,0.00000000,
11.8210,0.5041,0.8375,0.1690,0.5796,-0.7586,1.8458,0.6903,0.3588,0.1266,49.27916203,-122.98351930,0.00000000,
11.8410,0.5041,0.8375,0.1690,1.8446,1.0866,-1.9677,0.6903,0.3588,0.1266,49.27916203,-122.98351930,0.00000000,
11.8780,0.1519,1.0084,-0.1165,1.8446,1.0866,-1.9677,0.6903,0.3588,0.1266,49.27916203,-122.98351930,0.00000000,
11.8970,0.1519,1.0084,-0.1165,1.8446,1.0866,-1.9677,1.4363,1.4282,0.1132,49.27916203,-122.98351930,0.00000000,
11.9160,0.1519,1.0084,-0.1165,4.5093,-0.2185,-1.0534,1.4363,1.4282,0.1132,49.27916203,-122.98351930,0.00000000,
11.9340,-0.0015,1.0477,0.0660,4.5093,-0.2185,-1.0534,1.4363,1.4282,0.1132,49.27916203,-122.98351930,0.00000000,
11.9540,-0.0015,1.0477,0.0660,4.5093,-0.2185,-1.0534,1.6370,0.7128,0.0732,49.27916203,-122.98351930,0.00000000,
11.9730,-0.0015,1.0477,0.0660,-0.6647,0.4632,-1.2129,1.6370,0.7128,0.0732,49.27916203,-122.98351930,0.00000000,
12.0110,-0.0681,0.9289,-0.0137,-0.6647,0.4632,-1.2129,1.6370,0.7128,0.0732,49.27916203,-122.98351930,0.00000000,
12.0300,-0.0681,0.9289,-0.0137,-0.6647,0.4632,-1.2129,1.6133,0.5409,0.0481,49.27916203,-122.98351930,0.00000000,
12.0500,-0.0681,0.9289,-0.0137,-0.5637,-0.5336,0.6742,1.6133,0.5409,0.0481,49.27916203,-122.98351930,0.00000000,
12.0680,0.0089,0.9749,0.0044,-0.5637,-0.5336,0.6742,1.6133,0.5409,0.0481,49.27916203,-122.98351930,0.00000000,
12.0880,0.0089,0.9749,0.0044,-0.5637,-0.5336,0.6742,1.2514,0.5077,0.2066,49.27916203,-122.98351930,0.00000000,
12.1070,0.0089,0.9749,0.0044,-0.1882,-0.7904,0.7591,1.2514,0.5077,0.2066,49.27916203,-122.98351930,0.00000000,
12.1430,0.0553,0.9690,0.0281,-0.1882,-0.7904,0.7591,1.2514,0.5077,0.2066,49.27916203,-122.98351930,0.00000000,
12.1630,0.0553,0.9690,0.0281,-0.1882,-0.7904,0.7591,0.8378,0.9418,0.1422,49.27916203,-122.98351930,0.00000000,
12.1830,0.0553,0.9690,0.0281,-0.2494,-0.0359,1.4783,0.8378,0.9418,0.1422,49.27916203,-122.98351930,0.00000000,
12.2010,-0.0375,0.9573,-0.0341,-0.2494,-0.0359,1.4783,0.8378,0.9418,0.1422,49.27916203,-122.98351930,0.00000000,
12.2200,-0.0375,0.9573,-0.0341,-0.2494,-0.0359,1.4783,0.5627,1.0866,0.3249,49.27916203,-122.98351930,0.00000000,
12.2400,-0.0375,0.9573,-0.0341,-0.3598,-0.4885,1.5985,0.5627,1.0866,0.3249,49.27916203,-122.98351930,0.00000000,
12.2770,-0.1475,0.9395,-0.0707,-0.3598,-0.4885,1.5985,0.5627,1.0866,0.3249,49.27916203,-122.98351930,0.00000000,
12.2960,-0.1475,0.9395,-0.0707,-0.3598,-0.4885,1.5985,0.4638,0.7211,0.3345,49.27916203,-122.98351930,0.00000000,
12.3160,-0.1475,0.9395,-0.0707,-2.2292,-0.3940,1.3072,0.4638,0.7211,0.3345,49.27916203,-122.98351930,0.00000000,
12.3350,-0.1376,1.0935,0.0666,-2.2292,-0.3940,1.3072,0.4638,0.7211,0.3345,49.27916203,-122.98351930,0.00000000,
12.3560,-0.1376,1.0935,0.0666,-2.2292,-0.3940,1.3072,0.2563,0.6491,0.0755,49.27916203,-122.98351930,0.00000000,
12.3730,-0.1376,1.0935,0.0666,-2.2392,0.0348,1.6334,0.2563,0.6491,0.0755,49.27916203,-122.98351930,0.00000000,
12.4120,-0.1106,1.4933,-0.0418,-2.2392,0.0348,1.6334,0.2563,0.6491,0.0755,49.27916203,-122.98351930,0.00000000,
12.4300,-0.1106,1.4933,-0.0418,-2.2392,0.0348,1.6334,-1.1007,0.2230,-0.3033,49.27916203,-122.98351930,0.00000000,
12.4500,-0.1106,1.4933,-0.0418,-2.4784,2.8684,1.2947,-1.1007,0.2230,-0.3033,49.27916203,-122.98351930,0.00000000,
12.4680,0.1729,1.4336,-0.1424,-2.4784,2.8684,1.2947,-1.1007,0.2230,-0.3033,49.27916203,-122.98351930,0.00000000,
12.4860,0.1729,1.4336,-0.1424,-2.4784,2.8684,1.2947,-2.5665,-0.4898,-0.4184,49.27916203,-122.98351930,0.00000000,
12.5060,0.1729,1.4336,-0.1424,0.2381,4.9219,-2.5577,-2.5665,-0.4898,-0.4184,49.27916203,-122.98351930,0.00000000,
12.5440,0.2870,1.3522,-0.0606,0.2381,4.9219,-2.5577,-2.5665,-0.4898,-0.4184,49.27916203,-122.98351930,0.00000000,
12.5630,0.2870,1.3522,-0.0606,0.2381,4.9219,-2.5577,-2.2015,-0.5666,-0.4328,49.27916203,-122.98351930,0.00000000,
12.5820,0.2870,1.3522,-0.0606,2.6866,4.5333,-3.0884,-2.2015,-0.5666,-0.4328,49.27916203,-122.98351930,0.00000000,
12.6100,0.0606,0.9231,-0.0599,2.6866,4.5333,-3.0884,-2.2015,-0.5666,-0.4328,49.27916203,-122.98351930,0.00000000,
12.6300,0.0606,0.9231,-0.0599,2.6866,4.5333,-3.0884,-2.0905,-1.2109,-0.3385,49.27916203,-122.98351930,0.00000000,
12.6500,0.0606,0.9231,-0.0599,0.8940,1.0312,-4.2431,-2.0905,-1.2109,-0.3385,49.27916203,-122.98351930,0.00000000,
12.6680,0.2714,0.6272,0.1425,0.8940,1.0312,-4.2431,-2.0905,-1.2109,-0.3385,49.27916203,-122.98351930,0.00000000,
12.6860,0.2714,0.6272,0.1425,0.8940,1.0312,-4.2431,-1.4117,-0.6913,-0.0837,49.27916203,-122.98351930,0.00000000,
12.7060,0.2714,0.6272,0.1425,1.1114,-1.9840,-3.4876,-1.4117,-0.6913,-0.0837,49.27916203,-122.98351930,0.00000000,
12.7440,0.2519,0.5846,0.2301,1.1114,-1.9840,-3.4876,-1.4117,-0.6913,-0.0837,49.27916203,-122.98351930,0.00000000,
12.7630,0.2519,0.5846,0.2301,1.1114,-1.9840,-3.4876,-0.4848,0.5766,-0.0137,49.27916203,-122.98351930,0.00000000,
12.7820,0.2519,0.5846,0.2301,2.7323,-3.5375,-2.1618,-0.4848,0.5766,-0.0137,49.27916203,-122.98351930,0.00000000,
12.8010,-0.0673,0.6687,0.3593,2.7323,-3.5375,-2.1618,-0.4848,0.5766,-0.0137,49.27916203,-122.98351930,0.00000000,
12.8210,-0.0673,0.6687,0.3593,2.7323,-3.5375,-2.1618,0.2125,-0.1274,0.1373,49.27916203,-122.98351930,0.00000000,
12.8400,-0.0673,0.6687,0.3593,0.0389,-2.6370,-1.2994,0.2125,-0.1274,0.1373,49.27916203,-122.98351930,0.00000000,
12.8770,0.0664,0.8016,0.5669,0.0389,-2.6370,-1.2994,0.2125,-0.1274,0.1373,49.27916203,-122.98351930,0.00000000,
12.8960,0.0664,0.8016,0.5669,0.0389,-2.6370,-1.2994,0.8336,-0.1208,0.0734,49.27916203,-122.98351930,0.00000000,
12.9140,0.0664,0.8016,0.5669,-0.8361,-2.7817,1.1271,0.8336,-0.1208,0.0734,49.27916203,-122.98351930,0.00000000,
12.9340,0.2110,1.2589,0.7780,-0.8361,-2.7817,1.1271,0.8336,-0.1208,0.0734,49.27916203,-122.98351930,0.00000000,
12.9530,0.2110,1.2589,0.7780,-0.8361,-2.7817,1.1271,-0.1188,-0.2810,-0.5034,49.27916203,-122.98351930,0.00000000,
12.9720,0.2110,1.2589,0.7780,1.2295,2.8313,3.2946,-0.1188,-0.2810,-0.5034,49.27916203,-122.98351930,0.00000000,
13.0120,0.1295,0.4625,0.4105,1.2295,2.8313,3.2946,-0.1188,-0.2810,-0.5034,49.27916203,-122.98351930,0.00000000,
13.0300,0.1295,0.4625,0.4105,1.2295,2.8313,3.2946,0.7795,0.5107,-0.1945,49.27916203,-122.98351930,0.00000000,
13.0480,0.1295,0.4625,0.4105,2.4560,-3.0607,2.9037,0.7795,0.5107,-0.1945,49.27916203,-122.98351930,0.00000000,
13.0680,0.2186,1.5441,0.1511,2.4560,-3.0607,2.9037,0.7795,0.5107,-0.1945,49.27916203,-122.98351930,0.00000000,
13.0870,0.2186,1.5441,0.1511,2.4560,-3.0607,2.9037,0.0421,-0.6151,0.2041,49.27916203,-122.98351930,0.00000000,
13.1050,0.2186,1.5441,0.1511,-1.5801,5.0643,-0.2329,0.0421,-0.6151,0.2041,49.27916203,-122.98351930,0.00000000,
13.1440,0.1876,0.7749,0.0177,-1.5801,5.0643,-0.2329,0.0421,-0.6151,0.2041,49.27916203,-122.98351930,0.00000000,
13.1630,0.1876,0.7749,0.0177,-1.5801,5.0643,-0.2329,1.5501,1.3557,-0.2090,49.27916203,-122.98351930,0.00000000,
13.1820,0.1876,0.7749,0.0177,6.0079,-2.9094,-0.8366,1.5501,1.3557,-0.2090,49.27916203,-122.98351930,0.00000000,
13.2000,0.0357,1.1303,-0.0326,6.0079,-2.9094,-0.8366,1.5501,1.3557,-0.2090,49.27916203,-122.98351930,0.00000000,
13.2200,0.0357,1.1303,-0.0326,6.0079,-2.9094,-0.8366,1.4665,0.5306,0.0921,49.27916203,-122.98351930,0.00000000,
13.2380,0.0357,1.1303,-0.0326,-1.3765,1.4237,-3.1966,1.4665,0.5306,0.0921,49.27916203,-122.98351930,0.00000000,
13.2770,-0.0873,0.9117,-0.0431,-1.3765,1.4237,-3.1966,1.4665,0.5306,0.0921,49.27916203,-122.98351930,0.00000000,
13.2950,-0.0873,0.9117,-0.0431,-1.3765,1.4237,-3.1966,1.7693,0.7210,0.0053,49.27916203,-122.98351930,0.00000000,
13.3150,-0.0873,0.9117,-0.0431,0.5977,-1.3465,1.0723,1.7693,0.7210,0.0053,49.27916203,-122.98351930,0.00000000,
13.3340,-0.0609,0.9648,0.0250,0.5977,-1.3465,1.0723,1.7693,0.7210,0.0053,49.27916203,-122.98351930,0.00000000,
13.3550,-0.0609,0.9648,0.0250,0.5977,-1.3465,1.0723,1.2199,0.5836,0.0737,49.27916203,-122.98351930,0.00000000,
13.3730,-0.0609,0.9648,0.0250,-1.1872,-0.3695,0.2949,1.2199,0.5836,0.0737,49.27916203,-122.98351930,0.00000000,
13.4100,0.0331,0.9789,-0.0061,-1.1872,-0.3695,0.2949,1.2199,0.5836,0.0737,49.27916203,-122.98351930,0.00000000,
13.4290,0.0331,0.9789,-0.0061,-1.1872,-0.3695,0.2949,0.6779,0.8657,0.0942,49.27916203,-122.98351930,0.00000000,
13.4480,0.0331,0.9789,-0.0061,-0.4089,-0.3428,1.3507,0.6779,0.8657,0.0942,49.27916203,-122.98351930,0.00000000,
13.4670,0.0061,0.9639,-0.0499,-0.4089,-0.3428,1.3507,0.6779,0.8657,0.0942,49.27916203,-122.98351930,0.00000000,
13.4860,0.0061,0.9639,-0.0499,-0.4089,-0.3428,1.3507,0.4770,1.2505,0.1469,49.27916203,-122.98351930,0.00000000,
13.5050,0.0061,0.9639,-0.0499,0.3381,-0.3589,1.4946,0.4770,1.2505,0.1469,49.27916203,-122.98351930,0.00000000,
13.5430,-0.1159,0.9506,-0.0828,0.3381,-0.3589,1.4946,0.4770,1.2505,0.1469,49.27916203,-122.98351930,0.00000000,
13.5620,-0.1159,0.9506,-0.0828,0.3381,-0.3589,1.4946,0.5167,1.0999,0.2362,49.27916203,-122.98351930,0.00000000,
13.5810,-0.1159,0.9506,-0.0828,-1.4660,-0.3514,0.6430,0.5167,1.0999,0.2362,49.27916203,-122.98351930,0.00000000,
13.6100,0.0086,1.0480,0.0393,-1.4660,-0.3514,0.6430,0.5167,1.0999,0.2362,49.27916203,-122.98351930,0.00000000,
13.6290,0.0086,1.0480,0.0393,-1.4660,-0.3514,0.6430,0.5331,0.8637,0.1538,49.27916203,-122.98351930,0.00000000,
13.6470,0.0086,1.0480,0.0393,-1.4971,0.3355,1.5540,0.5331,0.8637,0.1538,49.27916203,-122.98351930,0.00000000,
13.6670,-0.1800,1.3014,0.0481,-1.4971,0.3355,1.5540,0.5331,0.8637,0.1538,49.27916203,-122.98351930,0.00000000,
13.6850,-0.1800,1.3014,0.0481,-1.4971,0.3355,1.5540,-0.1946,1.1545,0.1046,49.27916203,-122.98351930,0.00000000,
13.7050,-0.1800,1.3014,0.0481,-1.7441,1.0291,3.1636,-0.1946,1.1545,0.1046,49.27916203,-122.98351930,0.00000000,
13.7430,-0.1743,1.5196,-0.1494,-1.7441,1.0291,3.1636,-0.1946,1.1545,0.1046,49.27916203,-122.98351930,0.00000000,
13.7620,-0.1743,1.5196,-0.1494,-1.7441,1.0291,3.1636,-2.1141,-0.6100,-0.3577,49.27916203,-122.98351930,0.00000000,
13.7810,-0.1743,1.5196,-0.1494,-2.7110,5.5151,-2.2047,-2.1141,-0.6100,-0.3577,49.27916203,-122.98351930,0.00000000,
13.8000,0.1906,1.3879,-0.1600,-2.7110,5.5151,-2.2047,-2.1141,-0.6100,-0.3577,49.27916203,-122.98351930,0.00000000,
13.8190,0.1906,1.3879,-0.1600,-2.7110,5.5151,-2.2047,-2.6686,-1.0359,-0.3362,49.27916203,-122.98351930,0.00000000,
13.8390,0.1906,1.3879,-0.1600,0.0461,3.6776,-2.5673,-2.6686,-1.0359,-0.3362,49.27916203,-122.98351930,0.00000000,
13.8760,-0.0328,1.0636,-0.1178,0.0461,3.6776,-2.5673,-2.6686,-1.0359,-0.3362,49.27916203,-122.98351930,0.00000000,
13.8950,-0.0328,1.0636,-0.1178,0.0461,3.6776,-2.5673,-2.4760,-1.4621,-0.3399,49.27916203,-122.98351930,0.00000000,
13.9140,-0.0328,1.0636,-0.1178,0.6519,2.2517,-4.7896,-2.4760,-1.4621,-0.3399,49.27916203,-122.98351930,0.00000000,
13.9350,0.1406,0.8426,0.1001,0.6519,2.2517,-4.7896,-2.4760,-1.4621,-0.3399,49.27916203,-122.98351930,0.00000000,
13.9530,0.1406,0.8426,0.1001,0.6519,2.2517,-4.7896,-1.9709,-1.3820,-0.3926,49.27916203,-122.98351930,0.00000000,
13.9710,0.1406,0.8426,0.1001,-0.6697,0.3814,-3.8483,-1.9709,-1.3820,-0.3926,49.27916203,-122.98351930,0.00000000,
14.0100,0.2140,0.5128,0.2071,-0.6697,0.3814,-3.8483,-1.9709,-1.3820,-0.3926,49.27916203,-122.98351930,0.00000000,
14.0300,0.2140,0.5128,0.2071,-0.6697,0.3814,-3.8483,-0.8553,-0.4498,-0.5144,49.27916203,-122.98351930,0.00000000,
14.0490,0.2140,0.5128,0.2071,2.1021,-2.8820,-3.0193,-0.8553,-0.4498,-0.5144,49.27916203,-122.98351930,0.00000000,
14.0660,-0.0091,0.5868,0.2329,2.1021,-2.8820,-3.0193,-0.8553,-0.4498,-0.5144,49.27916203,-122.98351930,0.00000000,
14.0860,-0.0091,0.5868,0.2329,2.1021,-2.8820,-3.0193,0.1179,-0.5004,-0.3280,49.27916203,-122.98351930,0.00000000,
14.1060,-0.0091,0.5868,0.2329,0.5368,-3.5267,-1.9911,0.1179,-0.5004,-0.3280,49.27916203,-122.98351930,0.00000000,
14.1420,0.0031,0.7068,0.4936,0.5368,-3.5267,-1.9911,0.1179,-0.5004,-0.3280,49.27916203,-122.98351930,0.00000000,
14.1630,0.0031,0.7068,0.4936,0.5368,-3.5267,-1.9911,0.5240,-0.9837,0.0195,49.27916203,-122.98351930,0.00000000,
14.1820,0.0031,0.7068,0.4936,-1.1742,-2.9628,-0.2709,0.5240,-0.9837,0.0195,49.27916203,-122.98351930,0.00000000,
14.2000,0.1939,1.1870,0.7607,-1.1742,-2.9628,-0.2709,0.5240,-0.9837,0.0195,49.27916203,-122.98351930,0.00000000,
14.2190,0.1939,1.1870,0.7607,-1.1742,-2.9628,-0.2709,0.0674,-0.4135,-0.4216,49.27916203,-122.98351930,0.00000000,
14.2380,0.1939,1.1870,0.7607,0.8841,-0.0912,2.6882,0.0674,-0.4135,-0.4216,49.27916203,-122.98351930,0.00000000,
14.2770,0.1667,0.8483,0.6789,0.8841,-0.0912,2.6882,0.0674,-0.4135,-0.4216,49.27916203,-122.98351930,0.00000000,
14.2950,0.1667,0.8483,0.6789,0.8841,-0.0912,2.6882,-0.0706,0.0056,-0.3170,49.27916203,-122.98351930,0.00000000,
14.3140,0.1667,0.8483,0.6789,1.9504,2.6805,3.3393,-0.0706,0.0056,-0.3170,49.27916203,-122.98351930,0.00000000,
14.3330,0.0352,1.2348,0.2149,1.9504,2.6805,3.3393,-0.0706,0.0056,-0.3170,49.27916203,-122.98351930,0.00000000,
14.3530,0.0352,1.2348,0.2149,1.9504,2.6805,3.3393,0.2158,-0.4301,-0.0027,49.27916203,-122.98351930,0.00000000,
14.3720,0.0352,1.2348,0.2149,-0.6664,1.2852,0.8138,0.2158,-0.4301,-0.0027,49.27916203,-122.98351930,0.00000000,
14.4100,0.3874,0.8983,0.1432,-0.6664,1.2852,0.8138,0.2158,-0.4301,-0.0027,49.27916203,-122.98351930,0.00000000,
14.4280,0.3874,0.8983,0.1432,-0.6664,1.2852,0.8138,1.4314,0.9953,-0.0486,49.27916203,-122.98351930,0.00000000,
14.4490,0.3874,0.8983,0.1432,3.6907,-2.0437,-0.4672,1.4314,0.9953,-0.0486,49.27916203,-122.98351930,0.00000000,
14.4660,-0.0271,0.9696,-0.0768,3.6907,-2.0437,-0.4672,1.4314,0.9953,-0.0486,49.27916203,-122.98351930,0.00000000,
14.4850,-0.0271,0.9696,-0.0768,3.6907,-2.0437,-0.4672,1.4834,0.4675,0.1648,49.27916203,-122.98351930,0.00000000,
14.5050,-0.0271,0.9696,-0.0768,-0.0657,1.0257,-3.5706,1.4834,0.4675,0.1648,49.27916203,-122.98351930,0.00000000,
14.5420,-0.0017,0.9599,0.0869,-0.0657,1.0257,-3.5706,1.4834,0.4675,0.1648,49.27916203,-122.98351930,0.00000000,
14.5630,-0.0017,0.9599,0.0869,-0.0657,1.0257,-3.5706,1.9515,0.6733,0.0120,49.27916203,-122.98351930,0.00000000,
14.5810,-0.0017,0.9599,0.0869,0.8811,-0.4893,1.1031,1.9515,0.6733,0.0120,49.27916203,-122.98351930,0.00000000,
14.6090,-0.1426,0.9008,-0.0552,0.8811,-0.4893,1.1031,1.9515,0.6733,0.0120,49.27916203,-122.98351930,0.00000000,
14.6280,-0.1426,0.9008,-0.0552,0.8811,-0.4893,1.1031,1.5324,-0.0526,0.3022,49.27916203,-122.98351930,0.00000000,
14.6470,-0.1426,0.9008,-0.0552,-2.2483,-0.8854,-0.1533,1.5324,-0.0526,0.3022,49.27916203,-122.98351930,0.00000000,
14.6670,0.0517,0.9802,0.0865,-2.2483,-0.8854,-0.1533,1.5324,-0.0526,0.3022,49.27916203,-122.98351930,0.00000000,
14.6850,0.0517,0.9802,0.0865,-2.2483,-0.8854,-0.1533,1.0980,0.3387,0.2081,49.27916203,-122.98351930,0.00000000,
14.7030,0.0517,0.9802,0.0865,-0.5265,-0.5451,1.5324,1.0980,0.3387,0.2081,49.27916203,-122.98351930,0.00000000,
14.7420,0.0224,0.9591,0.0600,-0.5265,-0.5451,1.5324,1.0980,0.3387,0.2081,49.27916203,-122.98351930,0.00000000,
14.7630,0.0224,0.9591,0.0600,-0.5265,-0.5451,1.5324,0.7200,1.1217,0.2046,49.27916203,-122.98351930,0.00000000,
14.7820,0.0224,0.9591,0.0600,-0.2547,-0.2370,2.3929,0.7200,1.1217,0.2046,49.27916203,-122.98351930,0.00000000,
14.8010,-0.1213,0.9255,-0.0539,-0.2547,-0.2370,2.3929,0.7200,1.1217,0.2046,49.27916203,-122.98351930,0.00000000,
14.8190,-0.1213,0.9255,-0.0539,-0.2547,-0.2370,2.3929,0.6783,0.8882,0.3389,49.27916203,-122.98351930,0.00000000,
14.8380,-0.1213,0.9255,-0.0539,-1.6706,-0.1755,1.6588,0.6783,0.8882,0.3389,49.27916203,-122.98351930,0.00000000,
14.8760,-0.2055,1.0629,-0.0209,-1.6706,-0.1755,1.6588,0.6783,0.8882,0.3389,49.27916203,-122.98351930,0.00000000,
14.8950,-0.2055,1.0629,-0.0209,-1.6706,-0.1755,1.6588,0.5633,0.2702,0.2512,49.27916203,-122.98351930,0.00000000,
14.9140,-0.2055,1.0629,-0.0209,-3.7562,-0.2215,1.2061,0.5633,0.2702,0.2512,49.27916203,-122.98351930,0.00000000,
14.9330,-0.1418,1.4182,0.0805,-3.7562,-0.2215,1.2061,0.5633,0.2702,0.2512,49.27916203,-122.98351930,0.00000000,
14.9530,-0.1418,1.4182,0.0805,-3.7562,-0.2215,1.2061,-0.5564,0.5752,0.0668,49.27916203,-122.98351930,0.00000000,
14.9720,-0.1418,1.4182,0.0805,-2.0428,2.2600,2.7603,-0.5564,0.5752,0.0668,49.27916203,-122.98351930,0.00000000,
15.0100,0.0139,1.5179,-0.0916,-2.0428,2.2600,2.7603,-0.5564,0.5752,0.0668,49.27916203,-122.98351930,0.00000000,
15.0290,0.0139,1.5179,-0.0916,-2.0428,2.2600,2.7603,-2.5890,-0.4755,-0.4411,49.27916203,-122.98351930,0.00000000,
15.0470,0.0139,1.5179,-0.0916,-1.2156,5.9809,-1.5100,-2.5890,-0.4755,-0.4411,49.27916203,-122.98351930,0.00000000,
15.0660,0.2193,1.4715,-0.0940,-1.2156,5.9809,-1.5100,-2.5890,-0.4755,-0.4411,49.27916203,-122.98351930,0.00000000,
15.0840,0.2193,1.4715,-0.0940,-1.2156,5.9809,-1.5100,-2.5090,-0.7048,-0.5998,49.27916203,-122.98351930,0.00000000,
15.1060,0.2193,1.4715,-0.0940,0.7023,4.0243,-3.0483,-2.5090,-0.7048,-0.5998,49.27916203,-122.98351930,0.00000000,
15.1420,-0.0323,1.0697,-0.1470,0.7023,4.0243,-3.0483,-2.5090,-0.7048,-0.5998,49.27916203,-122.98351930,0.00000000,
15.1620,-0.0323,1.0697,-0.1470,0.7023,4.0243,-3.0483,-2.4371,-1.9866,-0.6982,49.27916203,-122.98351930,0.00000000,
15.1810,-0.0323,1.0697,-0.1470,0.5294,3.0604,-4.3362,-2.4371,-1.9866,-0.6982,49.27916203,-122.98351930,0.00000000,
15.1990,0.2129,0.6878,0.0439,0.5294,3.0604,-4.3362,-2.4371,-1.9866,-0.6982,49.27916203,-122.98351930,0.00000000,
15.2180,0.2129,0.6878,0.0439,0.5294,3.0604,-4.3362,-1.7753,-1.6073,-0.3006,49.27916203,-122.98351930,0.00000000,
15.2370,0.2129,0.6878,0.0439,-0.3846,-0.7667,-4.8425,-1.7753,-1.6073,-0.3006,49.27916203,-122.98351930,0.00000000,
15.2770,0.3669,0.4316,0.1816,-0.3846,-0.7667,-4.8425,-1.7753,-1.6073,-0.3006,49.27916203,-122.98351930,0.00000000,
15.2950,0.3669,0.4316,0.1816,-0.3846,-0.7667,-4.8425,-0.5513,0.3101,-0.5265,49.27916203,-122.98351930,0.00000000,
15.3130,0.3669,0.4316,0.1816,3.7411,-3.9757,-2.7310,-0.5513,0.3101,-0.5265,49.27916203,-122.98351930,0.00000000,
15.3320,-0.0426,0.4701,0.2038,3.7411,-3.9757,-2.7310,-0.5513,0.3101,-0.5265,49.27916203,-122.98351930,0.00000000,
15.3520,-0.0426,0.4701,0.2038,3.7411,-3.9757,-2.7310,0.3746,-0.2271,-0.2336,49.27916203,-122.98351930,0.00000000,
15.3720,-0.0426,0.4701,0.2038,1.3556,-5.0633,-2.6324,0.3746,-0.2271,-0.2336,49.27916203,-122.98351930,0.00000000,
15.4090,-0.1457,1.0319,0.6851,1.3556,-5.0633,-2.6324,0.3746,-0.2271,-0.2336,49.27916203,-122.98351930,0.00000000,
15.4280,-0.1457,1.0319,0.6851,1.3556,-5.0633,-2.6324,0.5366,-1.0017,-0.0085,49.27916203,-122.98351930,0.00000000,
15.4470,-0.1457,1.0319,0.6851,-2.4676,-1.6020,0.8571,0.5366,-1.0017,-0.0085,49.27916203,-122.98351930,0.00000000,
15.4650,0.2872,1.2598,0.7700,-2.4676,-1.6020,0.8571,0.5366,-1.0017,-0.0085,49.27916203,-122.98351930,0.00000000,
15.4850,0.2872,1.2598,0.7700,-2.4676,-1.6020,0.8571,0.0086,-0.4913,-0.7595,49.27916203,-122.98351930,0.00000000,
15.5030,0.2872,1.2598,0.7700,1.0127,3.4110,4.3850,0.0086,-0.4913,-0.7595,49.27916203,-122.98351930,0.00000000,
15.5430,0.1611,1.1111,0.3916,1.0127,3.4110,4.3850,0.0086,-0.4913,-0.7595,49.27916203,-122.98351930,0.00000000,
15.5620,0.1611,1.1111,0.3916,1.0127,3.4110,4.3850,0.0074,0.1754,0.2580,49.27916203,-122.98351930,0.00000000,
15.5810,0.1611,1.1111,0.3916,2.5851,-0.5051,2.8964,0.0074,0.1754,0.2580,49.27916203,-122.98351930,0.00000000,
15.6090,0.4100,0.6781,0.1179,2.5851,-0.5051,2.8964,0.0074,0.1754,0.2580,49.27916203,-122.98351930,0.00000000,
15.6280,0.4100,0.6781,0.1179,2.5851,-0.5051,2.8964,0.9694,0.9887,-0.0795,49.27916203,-122.98351930,0.00000000,
15.6470,0.4100,0.6781,0.1179,3.1074,0.5605,-3.2553,0.9694,0.9887,-0.0795,49.27916203,-122.98351930,0.00000000,
15.6650,-0.0873,1.2070,-0.1821,3.1074,0.5605,-3.2553,0.9694,0.9887,-0.0795,49.27916203,-122.98351930,0.00000000,
15.6840,-0.0873,1.2070,-0.1821,3.1074,0.5605,-3.2553,1.4134,0.8306,0.0929,49.27916203,-122.98351930,0.00000000,
15.7040,-0.0873,1.2070,-0.1821,0.4633,1.4797,-1.7681,1.4134,0.8306,0.0929,49.27916203,-122.98351930,0.00000000,
15.7410,0.0511,0.9325,0.1061,0.4633,1.4797,-1.7681,1.4134,0.8306,0.0929,49.27916203,-122.98351930,0.00000000,
15.7620,0.0511,0.9325,0.1061,0.4633,1.4797,-1.7681,1.8953,1.0315,0.1640,49.27916203,-122.98351930,0.00000000,
15.7820,0.0511,0.9325,0.1061,1.2000,-0.9270,0.1866,1.8953,1.0315,0.1640,49.27916203,-122.98351930,0.00000000,
15.7990,-0.1679,0.8883,-0.0519,1.2000,-0.9270,0.1866,1.8953,1.0315,0.1640,49.27916203,-122.98351930,0.00000000,
15.8180,-0.1679,0.8883,-0.0519,1.2000,-0.9270,0.1866,1.5925,0.2522,0.4200,49.27916203,-122.98351930,0.00000000,
15.8370,-0.1679,0.8883,-0.0519,-2.1475,-0.4769,-0.3353,1.5925,0.2522,0.4200,49.27916203,-122.98351930,0.00000000,
15.8760,-0.0209,0.9597,0.1077,-2.1475,-0.4769,-0.3353,1.5925,0.2522,0.4200,49.27916203,-122.98351930,0.00000000,
15.8950,-0.0209,0.9597,0.1077,-2.1475,-0.4769,-0.3353,1.4122,0.5904,0.3608,49.27916203,-122.98351930,0.00000000,
15.9140,-0.0209,0.9597,0.1077,-0.8573,-0.8418,2.0178,1.4122,0.5904,0.3608,49.27916203,-122.98351930,0.00000000,
15.9320,-0.0717,0.9045,0.1197,-0.8573,-0.8418,2.0178,1.4122,0.5904,0.3608,49.27916203,-122.98351930,0.00000000,
15.9510,-0.0717,0.9045,0.1197,-0.8573,-0.8418,2.0178,1.0485,0.9781,0.4254,49.27916203,-122.98351930,0.00000000,
15.9710,-0.0717,0.9045,0.1197,-1.4886,-0.5117,2.7084,1.0485,0.9781,0.4254,49.27916203,-122.98351930,0.00000000,
16.0090,-0.2310,0.8890,0.0093,-1.4886,-0.5117,2.7084,1.0485,0.9781,0.4254,49.27916203,-122.98351930,0.00000000,
16.0280,-0.2310,0.8890,0.0093,-1.4886,-0.5117,2.7084,0.6856,0.7178,0.5050,49.27916203,-122.98351930,0.00000000,
16.0460,-0.2310,0.8890,0.0093,-2.2573,-1.0848,2.7299,0.6856,0.7178,0.5050,49.27916203,-122.98351930,0.00000000,
16.0650,-0.1857,1.1765,-0.0153,-2.2573,-1.0848,2.7299,0.6856,0.7178,0.5050,49.27916203,-122.98351930,0.00000000,
16.0840,-0.1857,1.1765,-0.0153,-2.2573,-1.0848,2.7299,0.2245,-0.0227,0.0462,49.27916203,-122.98351930,0.00000000,
16.1050,-0.1857,1.1765,-0.0153,-4.3919,0.4792,1.2554,0.2245,-0.0227,0.0462,49.27916203,-122.98351930,0.00000000,
16.1430,-0.0368,1.7408,-0.0322,-4.3919,0.4792,1.2554,0.2245,-0.0227,0.0462,49.27916203,-122.98351930,0.00000000,
16.1610,-0.0368,1.7408,-0.0322,-4.3919,0.4792,1.2554,-1.4929,-0.1259,-0.1992,49.27916203,-122.98351930,0.00000000,
16.1800,-0.0368,1.7408,-0.0322,-1.6380,5.0816,0.8249,-1.4929,-0.1259,-0.1992,49.27916203,-122.98351930,0.00000000,
16.1990,0.1567,1.4267,-0.1828,-1.6380,5.0816,0.8249,-1.4929,-0.1259,-0.1992,49.27916203,-122.98351930,0.00000000,
16.2190,0.1567,1.4267,-0.1828,-1.6380,5.0816,0.8249,-2.7906,-0.5591,-0.5329,49.27916203,-122.98351930,0.00000000,
16.2360,0.1567,1.4267,-0.1828,0.3253,5.3315,-1.8114,-2.7906,-0.5591,-0.5329,49.27916203,-122.98351930,0.00000000,
16.2760,0.2934,1.3373,0.0309,0.3253,5.3315,-1.8114,-2.7906,-0.5591,-0.5329,49.27916203,-122.98351930,0.00000000,
16.2940,0.2934,1.3373,0.0309,0.3253,5.3315,-1.8114,-2.4562,-0.6673,-0.6500,49.27916203,-122.98351930,0.00000000,
16.3120,0.2934,1.3373,0.0309,3.4981,4.8455,-4.1265,-2.4562,-0.6673,-0.6500,49.27916203,-122.98351930,0.00000000,
16.3320,-0.0251,0.9326,-0.1109,3.4981,4.8455,-4.1265,-2.4562,-0.6673,-0.6500,49.27916203,-122.98351930,0.00000000,
16.3510,-0.0251,0.9326,-0.1109,3.4981,4.8455,-4.1265,-2.1233,-1.3335,-0.5347,49.27916203,-122.98351930,0.00000000,
16.3700,-0.0251,0.9326,-0.1109,-0.3105,1.2253,-3.9663,-2.1233,-1.3335,-0.5347,49.27916203,-122.98351930,0.00000000,
16.4100,0.2822,0.5308,0.0751,-0.3105,1.2253,-3.9663,-2.1233,-1.3335,-0.5347,49.27916203,-122.98351930,0.00000000,
16.4270,0.2822,0.5308,0.0751,-0.3105,1.2253,-3.9663,-1.2596,-1.1855,-0.2860,49.27916203,-122.98351930,0.00000000,
16.4460,0.2822,0.5308,0.0751,1.0513,-2.0545,-4.8793,-1.2596,-1.1855,-0.2860,49.27916203,-122.98351930,0.00000000,
16.4640,0.2987,0.3522,0.1877,1.0513,-2.0545,-4.8793,-1.2596,-1.1855,-0.2860,49.27916203,-122.98351930,0.00000000,
16.4840,0.2987,0.3522,0.1877,1.0513,-2.0545,-4.8793,0.1392,0.5536,-0.3746,49.27916203,-122.98351930,0.00000000,
16.5030,0.2987,0.3522,0.1877,3.6388,-5.4324,-1.8796,0.1392,0.5536,-0.3746,49.27916203,-122.98351930,0.00000000,
16.5420,-0.1368,0.6491,0.3142,3.6388,-5.4324,-1.8796,0.1392,0.5536,-0.3746,49.27916203,-122.98351930,0.00000000,
16.5610,-0.1368,0.6491,0.3142,3.6388,-5.4324,-1.8796,0.6148,-0.5680,0.0130,49.27916203,-122.98351930,0.00000000,
16.5790,-0.1368,0.6491,0.3142,0.1026,-4.6036,-1.8812,0.6148,-0.5680,0.0130,49.27916203,-122.98351930,0.00000000,
16.5990,-0.1136,1.4000,0.9076,0.1026,-4.6036,-1.8812,0.6148,-0.5680,0.0130,49.27916203,-122.98351930,0.00000000,
16.6170,-0.1136,1.4000,0.9076,0.1026,-4.6036,-1.8812,-0.0907,-0.9306,-0.2114,49.27916203,-122.98351930,0.00000000,
16.6360,-0.1136,1.4000,0.9076,-2.1687,0.9734,2.9156,-0.0907,-0.9306,-0.2114,49.27916203,-122.98351930,0.00000000,
16.6750,0.5328,0.6795,0.6328,-2.1687,0.9734,2.9156,-0.0907,-0.9306,-0.2114,49.27916203,-122.98351930,0.00000000,
16.6930,0.5328,0.6795,0.6328,-2.1687,0.9734,2.9156,0.0268,0.3346,-0.3033,49.27916203,-122.98351930,0.00000000,
16.7130,0.5328,0.6795,0.6328,3.0169,3.2401,4.2077,0.0268,0.3346,-0.3033,49.27916203,-122.98351930,0.00000000,
16.7310,0.0764,1.2846,0.0779,3.0169,3.2401,4.2077,0.0268,0.3346,-0.3033,49.27916203,-122.98351930,0.00000000,
16.7510,0.0764,1.2846,0.0779,3.0169,3.2401,4.2077,0.2570,0.2370,0.1985,49.27916203,-122.98351930,0.00000000,
16.7700,0.0764,1.2846,0.0779,1.9201,0.3321,0.5367,0.2570,0.2370,0.1985,49.27916203,-122.98351930,0.00000000,
16.8070,0.2569,0.9651,0.0789,1.9201,0.3321,0.5367,0.2570,0.2370,0.1985,49.27916203,-122.98351930,0.00000000,
16.8260,0.2569,0.9651,0.0789,1.9201,0.3321,0.5367,1.6321,1.1592,0.0312,49.27916203,-122.98351930,0.00000000,
16.8450,0.2569,0.9651,0.0789,3.4330,-0.8532,-1.2937,1.6321,1.1592,0.0312,49.27916203,-122.98351930,0.00000000,
16.8630,0.0175,0.9697,0.0220,3.4330,-0.8532,-1.2937,1.6321,1.1592,0.0312,49.27916203,-122.98351930,0.00000000,
16.8840,0.0175,0.9697,0.0220,3.4330,-0.8532,-1.2937,1.6129,0.8142,0.2441,49.27916203,-122.98351930,0.00000000,
16.9030,0.0175,0.9697,0.0220,-0.7622,0.8259,-3.1790,1.6129,0.8142,0.2441,49.27916203,-122.98351930,0.00000000,
16.9420,-0.1527,0.9377,-0.0238,-0.7622,0.8259,-3.1790,1.6129,0.8142,0.2441,49.27916203,-122.98351930,0.00000000,
16.9590,-0.1527,0.9377,-0.0238,-0.7622,0.8259,-3.1790,1.9754,0.8353,0.0975,49.27916203,-122.98351930,0.00000000,
16.9780,-0.1527,0.9377,-0.0238,0.6250,-0.7666,1.4310,1.9754,0.8353,0.0975,49.27916203,-122.98351930,0.00000000,
16.9990,-0.1357,0.9249,-0.0328,0.6250,-0.7666,1.4310,1.9754,0.8353,0.0975,49.27916203,-122.98351930,0.00000000,
17.0160,-0.1357,0.9249,-0.0328,0.6250,-0.7666,1.4310,1.5232,0.0178,0.2249,49.27916203,-122.98351930,0.00000000,
17.0360,-0.1357,0.9249,-0.0328,-2.5929,-0.8191,-0.2226,1.5232,0.0178,0.2249,49.27916203,-122.98351930,0.00000000,
17.0750,0.0571,0.9663,0.0424,-2.5929,-0.8191,-0.2226,1.5232,0.0178,0.2249,49.27916203,-122.98351930,0.00000000,
17.0940,0.0571,0.9663,0.0424,-2.5929,-0.8191,-0.2226,1.0307,0.6150,0.1479,49.27916203,-122.98351930,0.00000000,
17.1120,0.0571,0.9663,0.0424,-0.4992,-0.3665,2.0836,1.0307,0.6150,0.1479,49.27916203,-122.98351930,0.00000000,
17.1310,0.0346,0.9077,0.0055,-0.4992,-0.3665,2.0836,1.0307,0.6150,0.1479,49.27916203,-122.98351930,0.00000000,
17.1510,0.0346,0.9077,0.0055,-0.4992,-0.3665,2.0836,0.6256,1.2802,0.2907,49.27916203,-122.98351930,0.00000000,
17.1690,0.0346,0.9077,0.0055,0.2670,-0.6941,2.1483,0.6256,1.2802,0.2907,49.27916203,-122.98351930,0.00000000,
17.2080,-0.2120,0.9895,0.0129,0.2670,-0.6941,2.1483,0.6256,1.2802,0.2907,49.27916203,-122.98351930,0.00000000,
17.2280,-0.2120,0.9895,0.0129,0.2670,-0.6941,2.1483,0.5832,1.1023,0.3849,49.27916203,-122.98351930,0.00000000,
17.2450,-0.2120,0.9895,0.0129,-1.9713,-0.1598,1.8544,0.5832,1.1023,0.3849,49.27916203,-122.98351930,0.00000000,
17.2640,-0.1738,1.1698,0.1103,-1.9713,-0.1598,1.8544,0.5832,1.1023,0.3849,49.27916203,-122.98351930,0.00000000,
17.2830,-0.1738,1.1698,0.1103,-1.9713,-0.1598,1.8544,0.1341,0.5875,0.2340,49.27916203,-122.98351930,0.00000000,
17.3020,-0.1738,1.1698,0.1103,-3.3887,0.6930,2.3618,0.1341,0.5875,0.2340,49.27916203,-122.98351930,0.00000000,
17.3420,-0.0477,1.6919,-0.1229,-3.3887,0.6930,2.3618,0.1341,0.5875,0.2340,49.27916203,-122.98351930,0.00000000,
17.3610,-0.0477,1.6919,-0.1229,-3.3887,0.6930,2.3618,-1.9216,-0.0798,-0.2500,49.27916203,-122.98351930,0.00000000,
17.3780,-0.0477,1.6919,-0.1229,-2.2578,5.3908,0.3771,-1.9216,-0.0798,-0.2500,49.27916203,-122.98351930,0.00000000,
17.3980,0.1481,1.5264,-0.0891,-2.2578,5.3908,0.3771,-1.9216,-0.0798,-0.2500,49.27916203,-122.98351930,0.00000000,
17.4170,0.1481,1.5264,-0.0891,-2.2578,5.3908,0.3771,-2.8537,-0.0238,-0.3130,49.27916203,-122.98351930,0.00000000,
17.4360,0.1481,1.5264,-0.0891,0.1310,4.6078,-2.5015,-2.8537,-0.0238,-0.3130,49.27916203,-122.98351930,0.00000000,
17.4740,-0.0618,1.2649,-0.0881,0.1310,4.6078,-2.5015,-2.8537,-0.0238,-0.3130,49.27916203,-122.98351930,0.00000000,
17.4920,-0.0618,1.2649,-0.0881,0.1310,4.6078,-2.5015,-2.5188,-1.2727,-0.6904,49.27916203,-122.98351930,0.00000000,
17.5110,-0.0618,1.2649,-0.0881,0.5683,5.3140,-4.1728,-2.5188,-1.2727,-0.6904,49.27916203,-122.98351930,0.00000000,
17.5320,-0.0030,0.8133,-0.1177,0.5683,5.3140,-4.1728,-2.5188,-1.2727,-0.6904,49.27916203,-122.98351930,0.00000000,
17.5500,-0.0030,0.8133,-0.1177,0.5683,5.3140,-4.1728,-2.0914,-2.0675,-0.5179,49.27916203,-122.98351930,0.00000000,
17.5690,-0.0030,0.8133,-0.1177,-1.6750,0.6423,-5.1992,-2.0914,-2.0675,-0.5179,49.27916203,-122.98351930,0.00000000,
17.5980,0.3472,0.4713,0.1392,-1.6750,0.6423,-5.1992,-2.0914,-2.0675,-0.5179,49.27916203,-122.98351930,0.00000000,
17.6170,0.3472,0.4713,0.1392,-1.6750,0.6423,-5.1992,-0.9484,-1.0573,-0.5801,49.27916203,-122.98351930,0.00000000,
17.6360,0.3472,0.4713,0.1392,1.7746,-3.3733,-3.9891,-0.9484,-1.0573,-0.5801,49.27916203,-122.98351930,0.00000000,
17.6730,0.1542,0.3296,0.1404,1.7746,-3.3733,-3.9891,-0.9484,-1.0573,-0.5801,49.27916203,-122.98351930,0.00000000,
17.6930,0.1542,0.3296,0.1404,1.7746,-3.3733,-3.9891,0.4884,0.1829,-0.7403,49.27916203,-122.98351930,0.00000000,
17.7120,0.1542,0.3296,0.1404,2.9961,-5.5218,-2.0305,0.4884,0.1829,-0.7403,49.27916203,-122.98351930,0.00000000,
17.7320,-0.1872,0.8437,0.4660,2.9961,-5.5218,-2.0305,0.4884,0.1829,-0.7403,49.27916203,-122.98351930,0.00000000,
17.7500,-0.1872,0.8437,0.4660,2.9961,-5.5218,-2.0305,0.7265,-1.1978,0.0549,49.27916203,-122.98351930,0.00000000,
17.7690,-0.1872,0.8437,0.4660,-1.3275,-4.1916,-0.9223,0.7265,-1.1978,0.0549,49.27916203,-122.98351930,0.00000000,
17.8070,0.1791,1.3072,0.8337,-1.3275,-4.1916,-0.9223,0.7265,-1.1978,0.0549,49.27916203,-122.98351930,0.00000000,
17.8260,0.1791,1.3072,0.8337,-1.3275,-4.1916,-0.9223,-0.2544,-0.8846,-0.4828,49.27916203,-122.98351930,0.00000000,
17.8450,0.1791,1.3072,0.8337,-0.7247,2.3881,3.1652,-0.2544,-0.8846,-0.4828,49.27916203,-122.98351930,0.00000000,
17.8640,0.1486,0.7347,0.7080,-0.7247,2.3881,3.1652,-0.2544,-0.8846,-0.4828,49.27916203,-122.98351930,0.00000000,
17.8820,0.1486,0.7347,0.7080,-0.7247,2.3881,3.1652,0.1301,-0.1126,-0.6192,49.27916203,-122.98351930,0.00000000,
17.9020,0.1486,0.7347,0.7080,3.4208,1.8274,4.2708,0.1301,-0.1126,-0.6192,49.27916203,-122.98351930,0.00000000,
17.9410,0.0782,1.2435,-0.1348,3.4208,1.8274,4.2708,0.1301,-0.1126,-0.6192,49.27916203,-122.98351930,0.00000000,
17.9600,0.0782,1.2435,-0.1348,3.4208,1.8274,4.2708,-0.2743,-0.9291,0.4333,49.27916203,-122.98351930,0.00000000,
17.9790,0.0782,1.2435,-0.1348,-3.4052,1.9973,-1.1404,-0.2743,-0.9291,0.4333,49.27916203,-122.98351930,0.00000000,
17.9970,0.4826,0.9032,0.1407,-3.4052,1.9973,-1.1404,-0.2743,-0.9291,0.4333,49.27916203,-122.98351930,0.00000000,
18.0160,0.4826,0.9032,0.1407,-3.4052,1.9973,-1.1404,1.7743,1.9020,-0.2357,49.27916203,-122.98351930,0.00000000,
18.0350,0.4826,0.9032,0.1407,8.1925,-1.7656,0.3939,1.7743,1.9020,-0.2357,49.27916203,-122.98351930,0.00000000,
18.0740,-0.1403,1.1300,-0.0701,8.1925,-1.7656,0.3939,1.7743,1.9020,-0.2357,49.27916203,-122.98351930,0.00000000,
18.0930,-0.1403,1.1300,-0.0701,8.1925,-1.7656,0.3939,1.5675,0.5325,0.2696,49.27916203,-122.98351930,0.00000000,
18.1130,-0.1403,1.1300,-0.0701,-1.6044,0.9725,-4.3330,1.5675,0.5325,0.2696,49.27916203,-122.98351930,0.00000000,
18.1310,-0.1742,0.9027,0.0121,-1.6044,0.9725,-4.3330,1.5675,0.5325,0.2696,49.27916203,-122.98351930,0.00000000,
18.1500,-0.1742,0.9027,0.0121,-1.6044,0.9725,-4.3330,2.0356,0.2223,0.0280,49.27916203,-122.98351930,0.00000000,
18.1680,-0.1742,0.9027,0.0121,-0.4954,-0.5703,1.0055,2.0356,0.2223,0.0280,49.27916203,-122.98351930,0.00000000,
18.2060,-0.0092,0.8834,0.0065,-0.4954,-0.5703,1.0055,2.0356,0.2223,0.0280,49.27916203,-122.98351930,0.00000000,
18.2250,-0.0092,0.8834,0.0065,-0.4954,-0.5703,1.0055,1.5354,0.2016,0.3978,49.27916203,-122.98351930,0.00000000,
18.2440,-0.0092,0.8834,0.0065,-1.8783,-1.0501,0.2940,1.5354,0.2016,0.3978,49.27916203,-122.98351930,0.00000000,
18.2640,-0.0112,0.9469,0.0561,-1.8783,-1.0501,0.2940,1.5354,0.2016,0.3978,49.27916203,-122.98351930,0.00000000,
18.2820,-0.0112,0.9469,0.0561,-1.8783,-1.0501,0.2940,1.0801,0.6407,0.3106,49.27916203,-122.98351930,0.00000000,
18.3010,-0.0112,0.9469,0.0561,-0.1716,-0.7600,2.3750,1.0801,0.6407,0.3106,49.27916203,-122.98351930,0.00000000,
18.3400,0.0458,0.9362,0.0341,-0.1716,-0.7600,2.3750,1.0801,0.6407,0.3106,49.27916203,-122.98351930,0.00000000,
18.3590,0.0458,0.9362,0.0341,-0.1716,-0.7600,2.3750,0.7011,1.0657,0.3710,49.27916203,-122.98351930,0.00000000,
18.3780,0.0458,0.9362,0.0341,-0.8978,-0.3053,2.1733,0.7011,1.0657,0.3710,49.27916203,-122.98351930,0.00000000,
18.3960,-0.1957,0.9675,-0.0103,-0.8978,-0.3053,2.1733,0.7011,1.0657,0.3710,49.27916203,-122.98351930,0.00000000,
18.4150,-0.1957,0.9675,-0.0103,-0.8978,-0.3053,2.1733,0.5676,0.9393,0.4539,49.27916203,-122.98351930,0.00000000,
18.4340,-0.1957,0.9675,-0.0103,-1.6513,-0.3989,2.1813,0.5676,0.9393,0.4539,49.27916203,-122.98351930,0.00000000,
18.4730,-0.2070,1.3657,0.0432,-1.6513,-0.3989,2.1813,0.5676,0.9393,0.4539,49.27916203,-122.98351930,0.00000000,
18.4920,-0.2070,1.3657,0.0432,-1.6513,-0.3989,2.1813,-0.0900,0.1897,-0.0608,49.27916203,-122.98351930,0.00000000,
18.5110,-0.2070,1.3657,0.0432,-3.5994,1.3151,1.9565,-0.0900,0.1897,-0.0608,49.27916203,-122.98351930,0.00000000,
18.5310,-0.0104,1.6436,-0.0638,-3.5994,1.3151,1.9565,-0.0900,0.1897,-0.0608,49.27916203,-122.98351930,0.00000000,
18.5490,-0.0104,1.6436,-0.0638,-3.5994,1.3151,1.9565,-2.2420,-0.1295,-0.4062,49.27916203,-122.98351930,0.00000000,
18.5670,-0.0104,1.6436,-0.0638,-1.9730,6.8522,-0.4681,-2.2420,-0.1295,-0.4062,49.27916203,-122.98351930,0.00000000,
18.5980,0.2617,1.5027,-0.2095,-1.9730,6.8522,-0.4681,-2.2420,-0.1295,-0.4062,49.27916203,-122.98351930,0.00000000,
18.6160,0.2617,1.5027,-0.2095,-1.9730,6.8522,-0.4681,-2.7375,-0.7306,-0.5546,49.27916203,-122.98351930,0.00000000,
18.6340,0.2617,1.5027,-0.2095,0.5981,4.1999,-3.3942,-2.7375,-0.7306,-0.5546,49.27916203,-122.98351930,0.00000000,
18.6730,0.0643,1.1341,-0.0017,0.5981,4.1999,-3.3942,-2.7375,-0.7306,-0.5546,49.27916203,-122.98351930,0.00000000,
18.6910,0.0643,1.1341,-0.0017,0.5981,4.1999,-3.3942,-2.4153,-1.1230,-0.7918,49.27916203,-122.98351930,0.00000000,
18.7120,0.0643,1.1341,-0.0017,2.3527,3.9869,-3.3502,-2.4153,-1.1230,-0.7918,49.27916203,-122.98351930,0.00000000,
18.7310,-0.0154,0.7282,-0.0657,2.3527,3.9869,-3.3502,-2.4153,-1.1230,-0.7918,49.27916203,-122.98351930,0.00000000,
18.7490,-0.0154,0.7282,-0.0657,2.3527,3.9869,-3.3502,-1.8678,-1.6759,-0.4931,49.27916203,-122.98351930,0.00000000,
18.7680,-0.0154,0.7282,-0.0657,-1.0842,-0.2750,-4.7422,-1.8678,-1.6759,-0.4931,49.27916203,-122.98351930,0.00000000,
18.8050,0.3106,0.4396,0.1692,-1.0842,-0.2750,-4.7422,-1.8678,-1.6759,-0.4931,49.27916203,-122.98351930,0.00000000,
18.8250,0.3106,0.4396,0.1692,-1.0842,-0.2750,-4.7422,-0.5616,-0.7285,-0.5888,49.27916203,-122.98351930,0.00000000,
18.8440,0.3106,0.4396,0.1692,2.1508,-3.7718,-3.3791,-0.5616,-0.7285,-0.5888,49.27916203,-122.98351930,0.00000000,
18.8630,0.1029,0.3881,0.1438,2.1508,-3.7718,-3.3791,-0.5616,-0.7285,-0.5888,49.27916203,-122.98351930,0.00000000,
18.8820,0.1029,0.3881,0.1438,2.1508,-3.7718,-3.3791,0.5453,0.1187,-0.4439,49.27916203,-122.98351930,0.00000000,
18.9020,0.1029,0.3881,0.1438,2.3901,-5.7064,-2.0222,0.5453,0.1187,-0.4439,49.27916203,-122.98351930,0.00000000,
18.9400,-0.1547,0.9359,0.5629,2.3901,-5.7064,-2.0222,0.5453,0.1187,-0.4439,49.27916203,-122.98351930,0.00000000,
18.9590,-0.1547,0.9359,0.5629,2.3901,-5.7064,-2.0222,0.6540,-0.8814,-0.0559,49.27916203,-122.98351930,0.00000000,
18.9770,-0.1547,0.9359,0.5629,-0.8605,-2.8165,-0.0492,0.6540,-0.8814,-0.0559,49.27916203,-122.98351930,0.00000000,
18.9960,0.0685,1.2568,0.8024,-0.8605,-2.8165,-0.0492,0.6540,-0.8814,-0.0559,49.27916203,-122.98351930,0.00000000,
19.0150,0.0685,1.2568,0.8024,-0.8605,-2.8165,-0.0492,-0.0375,-0.4001,-0.4516,49.27916203,-122.98351930,0.00000000,
19.0330,0.0685,1.2568,0.8024,-0.4925,2.2574,4.6736,-0.0375,-0.4001,-0.4516,49.27916203,-122.98351930,0.00000000,
19.0730,0.0987,1.3281,0.4618,-0.4925,2.2574,4.6736,-0.0375,-0.4001,-0.4516,49.27916203,-122.98351930,0.00000000,
19.0920,0.0987,1.3281,0.4618,-0.4925,2.2574,4.6736,-0.4583,-0.4097,0.0870,49.27916203,-122.98351930,0.00000000,
19.1110,0.0987,1.3281,0.4618,1.6029,1.9293,2.9894,-0.4583,-0.4097,0.0870,49.27916203,-122.98351930,0.00000000,
19.1300,0.6184,0.4633,0.2106,1.6029,1.9293,2.9894,-0.4583,-0.4097,0.0870,49.27916203,-122.98351930,0.00000000,
19.1480,0.6184,0.4633,0.2106,1.6029,1.9293,2.9894,0.7303,1.1645,0.1162,49.27916203,-122.98351930,0.00000000,
19.1680,0.6184,0.4633,0.2106,3.6287,1.0612,-2.1968,0.7303,1.1645,0.1162,49.27916203,-122.98351930,0.00000000,
19.2060,-0.1543,1.3425,-0.3079,3.6287,1.0612,-2.1968,0.7303,1.1645,0.1162,49.27916203,-122.98351930,0.00000000,
19.2250,-0.1543,1.3425,-0.3079,3.6287,1.0612,-2.1968,1.4988,1.0013,0.1216,49.27916203,-122.98351930,0.00000000,
19.2440,-0.1543,1.3425,-0.3079,2.8967,0.2594,-1.5579,1.4988,1.0013,0.1216,49.27916203,-122.98351930,0.00000000,
19.2630,0.0713,0.9051,0.1998,2.8967,0.2594,-1.5579,1.4988,1.0013,0.1216,49.27916203,-122.98351930,0.00000000,
19.2820,0.0713,0.9051,0.1998,2.8967,0.2594,-1.5579,1.7724,0.6964,0.2027,49.27916203,-122.98351930,0.00000000,
19.3010,0.0713,0.9051,0.1998,-0.8827,-0.4579,-0.9187,1.7724,0.6964,0.2027,49.27916203,-122.98351930,0.00000000,
19.3390,-0.1935,0.9608,-0.0321,-0.8827,-0.4579,-0.9187,1.7724,0.6964,0.2027,49.27916203,-122.98351930,0.00000000,
19.3580,-0.1935,0.9608,-0.0321,-0.8827,-0.4579,-0.9187,1.7300,0.5358,0.1010,49.27916203,-122.98351930,0.00000000,
19.3770,-0.1935,0.9608,-0.0321,-0.8457,0.0230,0.9704,1.7300,0.5358,0.1010,49.27916203,-122.98351930,0.00000000,
19.3960,-0.0435,0.8942,0.0410,-0.8457,0.0230,0.9704,1.7300,0.5358,0.1010,49.27916203,-122.98351930,0.00000000,
19.4150,-0.0435,0.8942,0.0410,-0.8457,0.0230,0.9704,1.3836,0.1288,0.3844,49.27916203,-122.98351930,0.00000000,
19.4350,-0.0435,0.8942,0.0410,-1.2735,-1.3292,1.1491,1.3836,0.1288,0.3844,49.27916203,-122.98351930,0.00000000,
19.4720,0.0787,0.9412,0.0943,-1.2735,-1.3292,1.1491,1.3836,0.1288,0.3844,49.27916203,-122.98351930,0.00000000,
19.4910,0.0787,0.9412,0.0943,-1.2735,-1.3292,1.1491,0.9801,0.8009,0.3832,49.27916203,-122.98351930,0.00000000,
19.5100,0.0787,0.9412,0.0943,-0.5076,-0.4205,2.3144,0.9801,0.8009,0.3832,49.27916203,-122.98351930,0.00000000,
19.5290,-0.0024,0.9121,0.0192,-0.5076,-0.4205,2.3144,0.9801,0.8009,0.3832,49.27916203,-122.98351930,0.00000000,
19.5490,-0.0024,0.9121,0.0192,-0.5076,-0.4205,2.3144,0.7724,1.6299,0.5315,49.27916203,-122.98351930,0.00000000,
19.5670,-0.0024,0.9121,0.0192,0.1622,-0.6485,2.6338,0.7724,1.6299,0.5315,49.27916203,-122.98351930,0.00000000,
19.5980,-0.3485,1.0313,-0.0557,0.1622,-0.6485,2.6338,0.7724,1.6299,0.5315,49.27916203,-122.98351930,0.00000000,
19.6150,-0.3485,1.0313,-0.0557,0.1622,-0.6485,2.6338,0.3032,0.4244,0.1591,49.27916203,-122.98351930,0.00000000,
19.6350,-0.3485,1.0313,-0.0557,-4.0265,-0.0016,1.5389,0.3032,0.4244,0.1591,49.27916203,-122.98351930,0.00000000,
19.6720,-0.2119,1.4759,0.0305,-4.0265,-0.0016,1.5389,0.3032,0.4244,0.1591,49.27916203,-122.98351930,0.00000000,
19.6920,-0.2119,1.4759,0.0305,-4.0265,-0.0016,1.5389,-0.6729,0.0529,-0.2235,49.27916203,-122.98351930,0.00000000,
19.7110,-0.2119,1.4759,0.0305,-3.0535,2.2710,1.4746,-0.6729,0.0529,-0.2235,49.27916203,-122.98351930,0.00000000,
19.7280,0.1447,1.4916,-0.1127,-3.0535,2.2710,1.4746,-0.6729,0.0529,-0.2235,49.27916203,-122.98351930,0.00000000,
19.7470,0.1447,1.4916,-0.1127,-3.0535,2.2710,1.4746,-2.6385,-0.5496,-0.3369,49.27916203,-122.98351930,0.00000000,
19.7670,0.1447,1.4916,-0.1127,-0.8213,6.0126,-0.9140,-2.6385,-0.5496,-0.3369,49.27916203,-122.98351930,0.00000000,
19.8060,0.3454,1.5102,-0.0649,-0.8213,6.0126,-0.9140,-2.6385,-0.5496,-0.3369,49.27916203,-122.98351930,0.00000000,
19.8230,0.3454,1.5102,-0.0649,-0.8213,6.0126,-0.9140,-2.4588,-0.4433,-0.4397,49.27916203,-122.98351930,0.00000000,
19.8430,0.3454,1.5102,-0.0649,2.5746,4.5957,-3.7311,-2.4588,-0.4433,-0.4397,49.27916203,-122.98351930,0.00000000,
19.8620,0.0421,1.0620,0.0227,2.5746,4.5957,-3.7311,-2.4588,-0.4433,-0.4397,49.27916203,-122.98351930,0.00000000,
19.8820,0.0421,1.0620,0.0227,2.5746,4.5957,-3.7311,-2.0837,-0.8884,-0.6354,49.27916203,-122.98351930,0.00000000,
19.9020,0.0421,1.0620,0.0227,1.5576,2.9321,-2.4874,-2.0837,-0.8884,-0.6354,49.27916203,-122.98351930,0.00000000,
19.9380,0.1109,0.6826,-0.0248,1.5576,2.9321,-2.4874,-2.0837,-0.8884,-0.6354,49.27916203,-122.98351930,0.00000000,
19.9580,0.1109,0.6826,-0.0248,1.5576,2.9321,-2.4874,-1.5535,-1.4588,-0.3141,49.27916203,-122.98351930,0.00000000,
19.9760,0.1109,0.6826,-0.0248,0.0277,-0.9419,-4.7684,-1.5535,-1.4588,-0.3141,49.27916203,-122.98351930,0.00000000,
19.9960,0.2537,0.3845,0.2006,0.0277,-0.9419,-4.7684,-1.5535,-1.4588,-0.3141,49.27916203,-122.98351930,0.00000000,
20.0140,0.2537,0.3845,0.2006,0.0277,-0.9419,-4.7684,-0.2731,-0.1555,-0.3279,49.27916203,-122.98351930,0.00000000,
20.0340,0.2537,0.3845,0.2006,2.2521,-4.2332,-2.2994,-0.2731,-0.1555,-0.3279,49.27916203,-122.98351930,0.00000000,
20.0720,0.0530,0.4011,0.2105,2.2521,-4.2332,-2.2994,-0.2731,-0.1555,-0.3279,49.27916203,-122.98351930,0.00000000,
20.0910,0.0530,0.4011,0.2105,2.2521,-4.2332,-2.2994,0.6488,0.0471,0.0273,49.27916203,-122.98351930,0.00000000,
20.1100,0.0530,0.4011,0.2105,1.3603,-6.1977,-1.7173,0.6488,0.0471,0.0273,49.27916203,-122.98351930,0.00000000,
20.1290,-0.0718,1.0838,0.7353,1.3603,-6.1977,-1.7173,0.6488,0.0471,0.0273,49.27916203,-122.98351930,0.00000000,
20.1470,-0.0718,1.0838,0.7353,1.3603,-6.1977,-1.7173,0.3226,-0.5706,-0.0179,49.27916203,-122.98351930,0.00000000,
20.1670,-0.0718,1.0838,0.7353,-0.8507,-2.1117,0.9998,0.3226,-0.5706,-0.0179,49.27916203,-122.98351930,0.00000000,
20.2050,0.3474,1.2877,0.8144,-0.8507,-2.1117,0.9998,0.3226,-0.5706,-0.0179,49.27916203,-122.98351930,0.00000000,
20.2240,0.3474,1.2877,0.8144,-0.8507,-2.1117,0.9998,-0.4541,0.1192,-0.3930,49.27916203,-122.98351930,0.00000000,
20.2430,0.3474,1.2877,0.8144,0.3800,5.9710,6.0321,-0.4541,0.1192,-0.3930,49.27916203,-122.98351930,0.00000000,
20.2620,0.1242,1.1721,0.3802,0.3800,5.9710,6.0321,-0.4541,0.1192,-0.3930,49.27916203,-122.98351930,0.00000000,
20.2820,0.1242,1.1721,0.3802,0.3800,5.9710,6.0321,-0.0340,0.1537,0.2252,49.27916203,-122.98351930,0.00000000,
20.3010,0.1242,1.1721,0.3802,4.9734,-1.4126,1.5449,-0.0340,0.1537,0.2252,49.27916203,-122.98351930,0.00000000,
20.3390,0.4126,0.6776,-0.0007,4.9734,-1.4126,1.5449,-0.0340,0.1537,0.2252,49.27916203,-122.98351930,0.00000000,
20.3570,0.4126,0.6776,-0.0007,4.9734,-1.4126,1.5449,1.2412,1.2674,0.1244,49.27916203,-122.98351930,0.00000000,
20.3760,0.4126,0.6776,-0.0007,0.8988,0.1197,-2.9734,1.2412,1.2674,0.1244,49.27916203,-122.98351930,0.00000000,
20.3950,-0.2284,1.2086,-0.2019,0.8988,0.1197,-2.9734,1.2412,1.2674,0.1244,49.27916203,-122.98351930,0.00000000,
20.4150,-0.2284,1.2086,-0.2019,0.8988,0.1197,-2.9734,1.5625,0.6599,0.1141,49.27916203,-122.98351930,0.00000000,
20.4340,-0.2284,1.2086,-0.2019,0.1679,1.5916,-2.0619,1.5625,0.6599,0.1141,49.27916203,-122.98351930,0.00000000,
20.4720,0.1400,0.9055,0.1626,0.1679,1.5916,-2.0619,1.5625,0.6599,0.1141,49.27916203,-122.98351930,0.00000000,
20.4910,0.1400,0.9055,0.1626,0.1679,1.5916,-2.0619,1.9419,1.0362,0.1109,49.27916203,-122.98351930,0.00000000,
20.5100,0.1400,0.9055,0.1626,1.1857,-0.9124,0.9688,1.9419,1.0362,0.1109,49.27916203,-122.98351930,0.00000000,
20.5280,-0.1893,0.9307,-0.0855,1.1857,-0.9124,0.9688,1.9419,1.0362,0.1109,49.27916203,-122.98351930,0.00000000,
20.5470,-0.1893,0.9307,-0.0855,1.1857,-0.9124,0.9688,1.5019,0.6194,0.1797,49.27916203,-122.98351930,0.00000000,
20.5670,-0.1893,0.9307,-0.0855,-1.4155,-0.2538,-0.0035,1.5019,0.6194,0.1797,49.27916203,-122.98351930,0.00000000,
20.5990,-0.0458,0.9484,0.0586,-1.4155,-0.2538,-0.0035,1.5019,0.6194,0.1797,49.27916203,-122.98351930,0.00000000,
20.6140,-0.0458,0.9484,0.0586,-1.4155,-0.2538,-0.0035,1.1425,0.5197,0.1928,49.27916203,-122.98351930,0.00000000,
20.6330,-0.0458,0.9484,0.0586,-1.4286,-0.6840,1.4778,1.1425,0.5197,0.1928,49.27916203,-122.98351930,0.00000000,
20.6720,0.0167,0.9452,0.0603,-1.4286,-0.6840,1.4778,1.1425,0.5197,0.1928,49.27916203,-122.98351930,0.00000000,
20.6910,0.0167,0.9452,0.0603,-1.4286,-0.6840,1.4778,0.8741,1.0067,0.3242,49.27916203,-122.98351930,0.00000000,
20.7090,0.0167,0.9452,0.0603,-0.4689,-0.4573,2.4336,0.8741,1.0067,0.3242,49.27916203,-122.98351930,0.00000000,
20.7270,-0.0793,0.9386,-0.0505,-0.4689,-0.4573,2.4336,0.8741,1.0067,0.3242,49.27916203,-122.98351930,0.00000000,
20.7470,-0.0793,0.9386,-0.0505,-0.4689,-0.4573,2.4336,0.7725,1.1587,0.4966,49.27916203,-122.98351930,0.00000000,
20.7660,-0.0793,0.9386,-0.0505,-1.3029,-0.5909,1.8494,0.7725,1.1587,0.4966,49.27916203,-122.98351930,0.00000000,
20.8050,-0.2047,1.0374,-0.0509,-1.3029,-0.5909,1.8494,0.7725,1.1587,0.4966,49.27916203,-122.98351930,0.00000000,
20.8240,-0.2047,1.0374,-0.0509,-1.3029,-0.5909,1.8494,0.5926,0.5730,0.3401,49.27916203,-122.98351930,0.00000000,
20.8420,-0.2047,1.0374,-0.0509,-3.2563,0.2368,1.7220,0.5926,0.5730,0.3401,49.27916203,-122.98351930,0.00000000,
20.8620,-0.2008,1.4056,0.0400,-3.2563,0.2368,1.7220,0.5926,0.5730,0.3401,49.27916203,-122.98351930,0.00000000,
20.8810,-0.2008,1.4056,0.0400,-3.2563,0.2368,1.7220,-0.3396,0.4080,-0.1128,49.27916203,-122.98351930,0.00000000,
20.9000,-0.2008,1.4056,0.0400,-2.5555,2.3337,2.1806,-0.3396,0.4080,-0.1128,49.27916203,-122.98351930,0.00000000,
20.9380,-0.0568,1.5384,-0.1260,-2.5555,2.3337,2.1806,-0.3396,0.4080,-0.1128,49.27916203,-122.98351930,0.00000000,
20.9570,-0.0568,1.5384,-0.1260,-2.5555,2.3337,2.1806,-2.5748,-0.4615,-0.3467,49.27916203,-122.98351930,0.00000000,
20.9760,-0.0568,1.5384,-0.1260,-2.3345,5.8597,-0.9378,-2.5748,-0.4615,-0.3467,49.27916203,-122.98351930,0.00000000,
20.9950,0.2558,1.4567,-0.0716,-2.3345,5.8597,-0.9378,-2.5748,-0.4615,-0.3467,49.27916203,-122.98351930,0.00000000,
21.0140,0.2558,1.4567,-0.0716,-2.3345,5.8597,-0.9378,-2.6258,-0.7030,-0.4773,49.27916203,-122.98351930,0.00000000,
21.0330,0.2558,1.4567,-0.0716,0.5688,3.8571,-2.6863,-2.6258,-0.7030,-0.4773,49.27916203,-122.98351930,0.00000000,
21.0720,-0.0192,1.1103,-0.0955,0.5688,3.8571,-2.6863,-2.6258,-0.7030,-0.4773,49.27916203,-122.98351930,0.00000000,
21.0910,-0.0192,1.1103,-0.0955,0.5688,3.8571,-2.6863,-2.3757,-1.4757,-0.5750,49.27916203,-122.98351930,0.00000000,
21.1080,-0.0192,1.1103,-0.0955,1.2722,3.2982,-3.7578,-2.3757,-1.4757,-0.5750,49.27916203,-122.98351930,0.00000000,
21.1270,0.0701,0.7852,-0.0318,1.2722,3.2982,-3.7578,-2.3757,-1.4757,-0.5750,49.27916203,-122.98351930,0.00000000,
21.1470,0.0701,0.7852,-0.0318,1.2722,3.2982,-3.7578,-2.0018,-1.9712,-0.5635,49.27916203,-122.98351930,0.00000000,
21.1660,0.0701,0.7852,-0.0318,-1.2073,-0.0596,-4.9704,-2.0018,-1.9712,-0.5635,49.27916203,-122.98351930,0.00000000,
21.2040,0.3626,0.4188,0.2014,-1.2073,-0.0596,-4.9704,-2.0018,-1.9712,-0.5635,49.27916203,-122.98351930,0.00000000,
21.2220,0.3626,0.4188,0.2014,-1.2073,-0.0596,-4.9704,-0.8892,-0.7477,-0.6366,49.27916203,-122.98351930,0.00000000,
21.2420,0.3626,0.4188,0.2014,2.8191,-3.3724,-3.3108,-0.8892,-0.7477,-0.6366,49.27916203,-122.98351930,0.00000000,
21.2610,0.0600,0.4707,0.1914,2.8191,-3.3724,-3.3108,-0.8892,-0.7477,-0.6366,49.27916203,-122.98351930,0.00000000,
21.2810,0.0600,0.4707,0.1914,2.8191,-3.3724,-3.3108,0.4521,0.2700,-0.4177,49.27916203,-122.98351930,0.00000000,
21.2990,0.0600,0.4707,0.1914,2.1875,-5.2356,-1.7101,0.4521,0.2700,-0.4177,49.27916203,-122.98351930,0.00000000,
21.3370,-0.1635,0.8312,0.5479,2.1875,-5.2356,-1.7101,0.4521,0.2700,-0.4177,49.27916203,-122.98351930,0.00000000,
21.3580,-0.1635,0.8312,0.5479,2.1875,-5.2356,-1.7101,0.6654,-0.8175,0.1256,49.27916203,-122.98351930,0.00000000,
21.3750,-0.1635,0.8312,0.5479,-1.5680,-2.9296,-0.0275,0.6654,-0.8175,0.1256,49.27916203,-122.98351930,0.00000000,
21.3940,0.1002,1.3398,0.8692,-1.5680,-2.9296,-0.0275,0.6654,-0.8175,0.1256,49.27916203,-122.98351930,0.00000000,
21.4130,0.1002,1.3398,0.8692,-1.5680,-2.9296,-0.0275,-0.1368,-0.6037,-0.5781,49.27916203,-122.98351930,0.00000000,
21.4320,0.1002,1.3398,0.8692,-0.5493,2.2987,3.9697,-0.1368,-0.6037,-0.5781,49.27916203,-122.98351930,0.00000000,
21.4710,0.1895,0.6871,0.4341,-0.5493,2.2987,3.9697,-0.1368,-0.6037,-0.5781,49.27916203,-122.98351930,0.00000000,
21.4900,0.1895,0.6871,0.4341,-0.5493,2.2987,3.9697,0.3259,0.1150,-0.1319,49.27916203,-122.98351930,0.00000000,
21.5080,0.1895,0.6871,0.4341,2.3754,0.0893,3.7558,0.3259,0.1150,-0.1319,49.27916203,-122.98351930,0.00000000,
21.5260,0.3543,1.3582,0.2131,2.3754,0.0893,3.7558,0.3259,0.1150,-0.1319,49.27916203,-122.98351930,0.00000000,
21.5470,0.3543,1.3582,0.2131,2.3754,0.0893,3.7558,0.4746,0.3658,0.2441,49.27916203,-122.98351930,0.00000000,
21.5650,0.3543,1.3582,0.2131,1.4512,2.0835,-1.1220,0.4746,0.3658,0.2441,49.27916203,-122.98351930,0.00000000,
21.5980,0.0311,0.8249,-0.2042,1.4512,2.0835,-1.1220,0.4746,0.3658,0.2441,49.27916203,-122.98351930,0.00000000,
21.6130,0.0311,0.8249,-0.2042,1.4512,2.0835,-1.1220,1.6026,0.9770,-0.0837,49.27916203,-122.98351930,0.00000000,
21.6320,0.0311,0.8249,-0.2042,4.0495,-0.8157,-2.0448,1.6026,0.9770,-0.0837,49.27916203,-122.98351930,0.00000000,
21.6710,0.1006,1.0757,0.0811,4.0495,-0.8157,-2.0448,1.6026,0.9770,-0.0837,49.27916203,-122.98351930,0.00000000,
21.6890,0.1006,1.0757,0.0811,4.0495,-0.8157,-2.0448,1.6532,0.6410,0.1739,49.27916203,-122.98351930,0.00000000,
21.7080,0.1006,1.0757,0.0811,-1.4436,1.4314,-2.0503,1.6532,0.6410,0.1739,49.27916203,-122.98351930,0.00000000,
21.7280,-0.1946,0.9138,-0.0567,-1.4436,1.4314,-2.0503,1.6532,0.6410,0.1739,49.27916203,-122.98351930,0.00000000,
21.7450,-0.1946,0.9138,-0.0567,-1.4436,1.4314,-2.0503,1.8360,0.7917,0.1942,49.27916203,-122.98351930,0.00000000,
21.7660,-0.1946,0.9138,-0.0567,0.1702,-1.6477,1.4798,1.8360,0.7917,0.1942,49.27916203,-122.98351930,0.00000000,
21.8060,-0.1135,0.9612,0.0549,0.1702,-1.6477,1.4798,1.8360,0.7917,0.1942,49.27916203,-122.98351930,0.00000000,
21.8240,-0.1135,0.9612,0.0549,0.1702,-1.6477,1.4798,1.2769,0.2803,0.2394,49.27916203,-122.98351930,0.00000000,
21.8420,-0.1135,0.9612,0.0549,-2.2442,-0.2657,0.3571,1.2769,0.2803,0.2394,49.27916203,-122.98351930,0.00000000,
21.8610,0.0471,0.9354,0.0644,-2.2442,-0.2657,0.3571,1.2769,0.2803,0.2394,49.27916203,-122.98351930,0.00000000,
21.8800,0.0471,0.9354,0.0644,-2.2442,-0.2657,0.3571,0.8909,0.8276,0.2605,49.27916203,-122.98351930,0.00000000,
21.8980,0.0471,0.9354,0.0644,-0.7149,-0.2665,2.6045,0.8909,0.8276,0.2605,49.27916203,-122.98351930,0.00000000,
21.9360,-0.0380,0.9334,-0.0222,-0.7149,-0.2665,2.6045,0.8909,0.8276,0.2605,49.27916203,-122.98351930,0.00000000,
21.9560,-0.0380,0.9334,-0.0222,-0.7149,-0.2665,2.6045,0.8741,1.0613,0.3870,49.27916203,-122.98351930,0.00000000,
21.9750,-0.0380,0.9334,-0.0222,-0.4715,-0.5132,2.3552,0.8741,1.0613,0.3870,49.27916203,-122.98351930,0.00000000,
21.9940,-0.1597,0.9796,-0.0456,-0.4715,-0.5132,2.3552,0.8741,1.0613,0.3870,49.27916203,-122.98351930,0.00000000,
22.0120,-0.1597,0.9796,-0.0456,-0.4715,-0.5132,2.3552,0.7586,0.6951,0.4146,49.27916203,-122.98351930,0.00000000,
22.0320,-0.1597,0.9796,-0.0456,-2.3442,-0.3598,2.0113,0.7586,0.6951,0.4146,49.27916203,-122.98351930,0.00000000,
22.0710,-0.1879,1.2644,0.0575,-2.3442,-0.3598,2.0113,0.7586,0.6951,0.4146,49.27916203,-122.98351930,0.00000000,
22.0890,-0.1879,1.2644,0.0575,-2.3442,-0.3598,2.0113,0.1002,0.5140,-0.0207,49.27916203,-122.98351930,0.00000000,
22.1080,-0.1879,1.2644,0.0575,-2.4080,1.5066,2.0101,0.1002,0.5140,-0.0207,49.27916203,-122.98351930,0.00000000,
22.1270,-0.0588,1.5911,-0.1979,-2.4080,1.5066,2.0101,0.1002,0.5140,-0.0207,49.27916203,-122.98351930,0.00000000,
22.1460,-0.0588,1.5911,-0.1979,-2.4080,1.5066,2.0101,-1.8327,-0.3158,-0.3600,49.27916203,-122.98351930,0.00000000,
22.1650,-0.0588,1.5911,-0.1979,-2.7384,5.1467,0.1161,-1.8327,-0.3158,-0.3600,49.27916203,-122.98351930,0.00000000,
22.2040,0.2455,1.4215,-0.1657,-2.7384,5.1467,0.1161,-1.8327,-0.3158,-0.3600,49.27916203,-122.98351930,0.00000000,
22.2230,0.2455,1.4215,-0.1657,-2.7384,5.1467,0.1161,-2.6679,-0.5072,-0.2505,49.27916203,-122.98351930,0.00000000,
22.2410,0.2455,1.4215,-0.1657,0.2768,3.8030,-2.9131,-2.6679,-0.5072,-0.2505,49.27916203,-122.98351930,0.00000000,
22.2610,0.0953,1.1625,-0.0708,0.2768,3.8030,-2.9131,-2.6679,-0.5072,-0.2505,49.27916203,-122.98351930,0.00000000,
22.2800,0.0953,1.1625,-0.0708,0.2768,3.8030,-2.9131,-2.2862,-0.9315,-0.4788,49.27916203,-122.98351930,0.00000000,
22.2980,0.0953,1.1625,-0.0708,2.1578,3.7902,-3.3538,-2.2862,-0.9315,-0.4788,49.27916203,-122.98351930,0.00000000,
22.3370,0.0296,0.8487,-0.0746,2.1578,3.7902,-3.3538,-2.2862,-0.9315,-0.4788,49.27916203,-122.98351930,0.00000000,
22.3560,0.0296,0.8487,-0.0746,2.1578,3.7902,-3.3538,-2.1223,-1.6797,-0.4087,49.27916203,-122.98351930,0.00000000,
22.3740,0.0296,0.8487,-0.0746,-0.7293,0.2194,-4.6810,-2.1223,-1.6797,-0.4087,49.27916203,-122.98351930,0.00000000,
22.3930,0.3018,0.6000,0.2217,-0.7293,0.2194,-4.6810,-2.1223,-1.6797,-0.4087,49.27916203,-122.98351930,0.00000000,
22.4130,0.3018,0.6000,0.2217,-0.7293,0.2194,-4.6810,-1.0229,-0.5880,-0.3614,49.27916203,-122.98351930,0.00000000,
22.4320,0.3018,0.6000,0.2217,1.6458,-2.5299,-2.5940,-1.0229,-0.5880,-0.3614,49.27916203,-122.98351930,0.00000000,
22.4700,0.1498,0.5371,0.1644,1.6458,-2.5299,-2.5940,-1.0229,-0.5880,-0.3614,49.27916203,-122.98351930,0.00000000,
22.4890,0.1498,0.5371,0.1644,1.6458,-2.5299,-2.5940,0.0034,0.4813,-0.5675,49.27916203,-122.98351930,0.00000000,
22.5070,0.1498,0.5371,0.1644,2.6570,-3.7075,-1.4737,0.0034,0.4813,-0.5675,49.27916203,-122.98351930,0.00000000,
22.5280,-0.1574,0.6659,0.3469,2.6570,-3.7075,-1.4737,0.0034,0.4813,-0.5675,49.27916203,-122.98351930,0.00000000,
22.5450,-0.1574,0.6659,0.3469,2.6570,-3.7075,-1.4737,0.4870,-0.8455,-0.0170,49.27916203,-122.98351930,0.00000000,
22.5670,-0.1574,0.6659,0.3469,-0.7756,-3.8542,-1.2930,0.4870,-0.8455,-0.0170,49.27916203,-122.98351930,0.00000000,
22.5990,-0.0290,1.1172,0.8048,-0.7756,-3.8542,-1.2930,0.4870,-0.8455,-0.0170,49.27916203,-122.98351930,0.00000000,
22.6120,-0.0290,1.1172,0.8048,-0.7756,-3.8542,-1.2930,0.2212,-0.8732,-0.3005,49.27916203,-122.98351930,0.00000000,
22.6330,-0.0290,1.1172,0.8048,-1.3975,-0.4206,2.5826,0.2212,-0.8732,-0.3005,49.27916203,-122.98351930,0.00000000,
22.6710,0.3343,1.0060,0.6664,-1.3975,-0.4206,2.5826,0.2212,-0.8732,-0.3005,49.27916203,-122.98351930,0.00000000,
22.6900,0.3343,1.0060,0.6664,-1.3975,-0.4206,2.5826,-0.0370,0.0745,-0.4394,49.27916203,-122.98351930,0.00000000,
22.7070,0.3343,1.0060,0.6664,1.7328,3.1903,4.5313,-0.0370,0.0745,-0.4394,49.27916203,-122.98351930,0.00000000,
22.7260,0.1360,1.1975,0.1320,1.7328,3.1903,4.5313,-0.0370,0.0745,-0.4394,49.27916203,-122.98351930,0.00000000,
22.7460,0.1360,1.1975,0.1320,1.7328,3.1903,4.5313,0.0988,0.1106,0.1511,49.27916203,-122.98351930,0.00000000,
22.7650,0.1360,1.1975,0.1320,2.9486,-0.7123,0.0324,0.0988,0.1106,0.1511,49.27916203,-122.98351930,0.00000000,
22.8040,0.2771,0.7963,-0.0267,2.9486,-0.7123,0.0324,0.0988,0.1106,0.1511,49.27916203,-122.98351930,0.00000000,
22.8220,0.2771,0.7963,-0.0267,2.9486,-0.7123,0.0324,1.2115,1.2191,-0.1114,49.27916203,-122.98351930,0.00000000,
22.8410,0.2771,0.7963,-0.0267,2.3871,1.5473,-1.6452,1.2115,1.2191,-0.1114,49.27916203,-122.98351930,0.00000000,
22.8610,0.0144,1.1932,-0.0573,2.3871,1.5473,-1.6452,1.2115,1.2191,-0.1114,49.27916203,-122.98351930,0.00000000,
22.8780,0.0144,1.1932,-0.0573,2.3871,1.5473,-1.6452,1.5126,0.9374,0.2907,49.27916203,-122.98351930,0.00000000,
22.8980,0.0144,1.1932,-0.0573,0.1653,-0.4670,-2.2773,1.5126,0.9374,0.2907,49.27916203,-122.98351930,0.00000000,
22.9360,-0.1154,0.8902,0.0238,0.1653,-0.4670,-2.2773,1.5126,0.9374,0.2907,49.27916203,-122.98351930,0.00000000,
22.9560,-0.1154,0.8902,0.0238,0.1653,-0.4670,-2.2773,1.8880,1.1275,0.0617,49.27916203,-122.98351930,0.00000000,
22.9740,-0.1154,0.8902,0.0238,1.3524,-0.5131,1.0770,1.8880,1.1275,0.0617,49.27916203,-122.98351930,0.00000000,
22.9930,-0.2090,0.9389,-0.0693,1.3524,-0.5131,1.0770,1.8880,1.1275,0.0617,49.27916203,-122.98351930,0.00000000,
23.0120,-0.2090,0.9389,-0.0693,1.3524,-0.5131,1.0770,1.3396,0.3414,0.1867,49.27916203,-122.98351930,0.00000000,
23.0310,-0.2090,0.9389,-0.0693,-2.8656,-0.2905,-0.4417,1.3396,0.3414,0.1867,49.27916203,-122.98351930,0.00000000,
23.0700,0.0200,0.9514,0.0493,-2.8656,-0.2905,-0.4417,1.3396,0.3414,0.1867,49.27916203,-122.98351930,0.00000000,
23.0890,0.0200,0.9514,0.0493,-2.8656,-0.2905,-0.4417,1.0890,0.7431,0.1715,49.27916203,-122.98351930,0.00000000,
23.1070,0.0200,0.9514,0.0493,-0.9535,-0.5509,1.6926,1.0890,0.7431,0.1715,49.27916203,-122.98351930,0.00000000,
23.1250,0.0114,0.9585,-0.0149,-0.9535,-0.5509,1.6926,1.0890,0.7431,0.1715,49.27916203,-122.98351930,0.00000000,
23.1460,0.0114,0.9585,-0.0149,-0.9535,-0.5509,1.6926,0.7687,1.2655,0.3212,49.27916203,-122.98351930,0.00000000,
23.1640,0.0114,0.9585,-0.0149,0.4699,-0.4877,2.4257,0.7687,1.2655,0.3212,49.27916203,-122.98351930,0.00000000,
23.2030,-0.1921,0.9952,0.0010,0.4699,-0.4877,2.4257,0.7687,1.2655,0.3212,49.27916203,-122.98351930,0.00000000,
23.2230,-0.1921,0.9952,0.0010,0.4699,-0.4877,2.4257,0.6350,1.2353,0.3603,49.27916203,-122.98351930,0.00000000,
23.2420,-0.1921,0.9952,0.0010,-2.2798,-0.0854,1.7006,0.6350,1.2353,0.3603,49.27916203,-122.98351930,0.00000000,
23.2610,-0.1062,1.1162,0.0597,-2.2798,-0.0854,1.7006,0.6350,1.2353,0.3603,49.27916203,-122.98351930,0.00000000,
23.2780,-0.1062,1.1162,0.0597,-2.2798,-0.0854,1.7006,0.2920,0.5990,0.2198,49.27916203,-122.98351930,0.00000000,
23.2980,-0.1062,1.1162,0.0597,-2.4076,1.0145,1.9832,0.2920,0.5990,0.2198,49.27916203,-122.98351930,0.00000000,
23.3360,-0.1872,1.5476,-0.1278,-2.4076,1.0145,1.9832,0.2920,0.5990,0.2198,49.27916203,-122.98351930,0.00000000,
23.3570,-0.1872,1.5476,-0.1278,-2.4076,1.0145,1.9832,-1.1081,0.4089,-0.1601,49.27916203,-122.98351930,0.00000000,
23.3740,-0.1872,1.5476,-0.1278,-2.4952,2.9285,2.1576,-1.1081,0.4089,-0.1601,49.27916203,-122.98351930,0.00000000,
23.3930,0.0008,1.3663,-0.1193,-2.4952,2.9285,2.1576,-1.1081,0.4089,-0.1601,49.27916203,-122.98351930,0.00000000,
23.4110,0.0008,1.3663,-0.1193,-2.4952,2.9285,2.1576,-2.7459,-0.6114,-0.1160,49.27916203,-122.98351930,0.00000000,
23.4300,0.0008,1.3663,-0.1193,-1.6695,4.6835,-2.7727,-2.7459,-0.6114,-0.1160,49.27916203,-122.98351930,0.00000000,
23.4690,0.1455,1.3524,-0.1007,-1.6695,4.6835,-2.7727,-2.7459,-0.6114,-0.1160,49.27916203,-122.98351930,0.00000000,
23.4870,0.1455,1.3524,-0.1007,-1.6695,4.6835,-2.7727,-2.4869,-1.0411,-0.4556,49.27916203,-122.98351930,0.00000000,
23.5070,0.1455,1.3524,-0.1007,1.3827,4.7480,-3.8934,-2.4869,-1.0411,-0.4556,49.27916203,-122.98351930,0.00000000,
23.5250,-0.0415,0.9508,-0.0744,1.3827,4.7480,-3.8934,-2.4869,-1.0411,-0.4556,49.27916203,-122.98351930,0.00000000,
23.5450,-0.0415,0.9508,-0.0744,1.3827,4.7480,-3.8934,-2.2137,-1.7419,-0.4048,49.27916203,-122.98351930,0.00000000,
23.5630,-0.0415,0.9508,-0.0744,-1.0895,1.1863,-4.0073,-2.2137,-1.7419,-0.4048,49.27916203,-122.98351930,0.00000000,
23.5980,0.2244,0.6102,0.1491,-1.0895,1.1863,-4.0073,-2.2137,-1.7419,-0.4048,49.27916203,-122.98351930,0.00000000,
23.6120,0.2244,0.6102,0.1491,-1.0895,1.1863,-4.0073,-1.3686,-1.2216,-0.3710,49.27916203,-122.98351930,0.00000000,
23.6320,0.2244,0.6102,0.1491,0.5472,-2.0217,-3.3662,-1.3686,-1.2216,-0.3710,49.27916203,-122.98351930,0.00000000,
23.6690,0.1597,0.5086,0.1929,0.5472,-2.0217,-3.3662,-1.3686,-1.2216,-0.3710,49.27916203,-122.98351930,0.00000000,
23.6880,0.1597,0.5086,0.1929,0.5472,-2.0217,-3.3662,-0.0846,0.1609,-0.6277,49.27916203,-122.98351930,0.00000000,
23.7060,0.1597,0.5086,0.1929,2.1241,-3.9641,-1.8666,-0.0846,0.1609,-0.6277,49.27916203,-122.98351930,0.00000000,
23.7250,-0.0986,0.6164,0.2564,2.1241,-3.9641,-1.8666,-0.0846,0.1609,-0.6277,49.27916203,-122.98351930,0.00000000,
23.7450,-0.0986,0.6164,0.2564,2.1241,-3.9641,-1.8666,0.6549,-0.7098,-0.3085,49.27916203,-122.98351930,0.00000000,
23.7640,-0.0986,0.6164,0.2564,0.0312,-4.1598,-1.6023,0.6549,-0.7098,-0.3085,49.27916203,-122.98351930,0.00000000,
23.8020,-0.0620,1.1017,0.6510,0.0312,-4.1598,-1.6023,0.6549,-0.7098,-0.3085,49.27916203,-122.98351930,0.00000000,
