time,gFx,gFy,gFz,ax,ay,az,wx,wy,wz,p,Bx,By,Bz,I,Azimuth,Pitch,Roll,Latitude,Longitude,Speed (m/s)
0.021,0.3244,0.5149,0.768,-0.1848,-0.3202,0.8403,-0.0362,-0.13,0.049,849.1631,-1.8,-44.16,-39.48,11238,-142.858,-31.7,-22.9,49.17429765,-121.6758945,0
0.023,0.3244,0.5149,0.768,-0.1848,-0.3202,0.8403,-0.0362,-0.13,0.049,849.1631,-1.8,-44.22,-39.42,11238,-143.026,-31.7,-22.9,49.17429765,-121.6758945,0
0.024,0.3244,0.5149,0.768,-0.1848,-0.3202,0.8403,-0.049,0.1971,0.0842,849.1631,-1.8,-44.22,-39.42,11238,-143.026,-31.7,-22.9,49.17429765,-121.6758945,0
0.041,0.3244,0.5149,0.768,-0.0896,0.0638,-0.2615,-0.049,0.1971,0.0842,849.1631,-1.8,-44.22,-39.42,11238,-143.026,-31.7,-22.9,49.17429765,-121.6758945,0
0.081,0.3709,0.4915,0.7847,-0.0896,0.0638,-0.2615,-0.049,0.1971,0.0842,849.1631,-1.8,-44.22,-39.42,11238,-143.463,-29.523,-25.297,49.17429765,-121.6758945,0
0.083,0.3709,0.4915,0.7847,-0.0896,0.0638,-0.2615,-0.049,0.1971,0.0842,849.1631,-1.86,-44.22,-39.42,11238,-143.544,-29.523,-25.297,49.17429765,-121.6758945,0
0.085,0.3709,0.4915,0.7847,-0.0896,0.0638,-0.2615,0.2407,-0.4133,0.0735,849.1631,-1.86,-44.22,-39.42,11238,-143.544,-29.523,-25.297,49.17429765,-121.6758945,0
0.102,0.3709,0.4915,0.7847,0.1473,-0.2465,0.0492,0.2407,-0.4133,0.0735,849.1631,-1.86,-44.22,-39.42,11238,-143.544,-29.523,-25.297,49.17429765,-121.6758945,0
0.141,0.3958,0.4661,0.7944,0.1473,-0.2465,0.0492,0.2407,-0.4133,0.0735,849.1631,-1.86,-44.22,-39.42,11238,-144.562,-27.705,-26.482,49.17429765,-121.6758945,0
0.143,0.3958,0.4661,0.7944,0.1473,-0.2465,0.0492,0.2407,-0.4133,0.0735,849.1631,-1.86,-44.28,-39.36,11238,-144.701,-27.705,-26.482,49.17429765,-121.6758945,0
0.144,0.3958,0.4661,0.7944,0.1473,-0.2465,0.0492,0.6306,-0.7201,-0.1758,849.1631,-1.86,-44.28,-39.36,11238,-144.701,-27.705,-26.482,49.17429765,-121.6758945,0
0.145,0.3958,0.4661,0.7944,0.1473,-0.2465,0.0492,0.6306,-0.7201,-0.1758,848.9465,-1.86,-44.28,-39.36,11238,-144.701,-27.705,-26.482,49.17429765,-121.6758945,0
0.147,0.3958,0.4661,0.7944,0.1473,-0.2465,0.0492,0.6306,-0.7201,-0.1758,848.9465,-1.86,-44.28,-39.36,10690,-144.701,-27.705,-26.482,49.17429765,-121.6758945,0
0.162,0.3958,0.4661,0.7944,0.1218,-0.76,0.4591,0.6306,-0.7201,-0.1758,848.9465,-1.86,-44.28,-39.36,10690,-144.701,-27.705,-26.482,49.17429765,-121.6758945,0
0.201,0.3801,0.5721,0.7881,0.1218,-0.76,0.4591,0.6306,-0.7201,-0.1758,848.9465,-1.86,-44.28,-39.36,10690,-138.143,-33.179,-25.751,49.17429765,-121.6758945,0
0.205,0.3801,0.5721,0.7881,0.1218,-0.76,0.4591,0.6306,-0.7201,-0.1758,848.9465,-1.86,-44.34,-39.36,10690,-138.226,-33.179,-25.751,49.17429765,-121.6758945,0
0.206,0.3801,0.5721,0.7881,0.1218,-0.76,0.4591,0.7308,-0.6008,-0.1257,848.9465,-1.86,-44.34,-39.36,10690,-138.226,-33.179,-25.751,49.17429765,-121.6758945,0
0.221,0.3801,0.5721,0.7881,-0.2098,-0.0429,0.7397,0.7308,-0.6008,-0.1257,848.9465,-1.86,-44.34,-39.36,10690,-138.226,-33.179,-25.751,49.17429765,-121.6758945,0
0.26,0.2116,0.5697,0.5413,-0.2098,-0.0429,0.7397,0.7308,-0.6008,-0.1257,848.9465,-1.86,-44.34,-39.36,10690,-113.707,-44.426,-21.347,49.17429765,-121.6758945,0
0.262,0.2116,0.5697,0.5413,-0.2098,-0.0429,0.7397,0.7308,-0.6008,-0.1257,848.9465,-1.92,-44.4,-39.3,10690,-114.092,-44.426,-21.347,49.17429765,-121.6758945,0
0.263,0.2116,0.5697,0.5413,-0.2098,-0.0429,0.7397,0.0266,0.18,0.0511,848.9465,-1.92,-44.4,-39.3,10690,-114.092,-44.426,-21.347,49.17429765,-121.6758945,0
0.28,0.2116,0.5697,0.5413,-1.7219,-0.1448,-1.6923,0.0266,0.18,0.0511,848.9465,-1.92,-44.4,-39.3,10690,-114.092,-44.426,-21.347,49.17429765,-121.6758945,0
0.321,0.2766,0.5833,0.6464,-1.7219,-0.1448,-1.6923,0.0266,0.18,0.0511,848.9465,-1.92,-44.4,-39.3,10690,-127.783,-39.683,-23.164,49.17429765,-121.6758945,0
0.323,0.2766,0.5833,0.6464,-1.7219,-0.1448,-1.6923,0.0266,0.18,0.0511,848.9465,-1.98,-44.4,-39.24,10690,-127.995,-39.683,-23.164,49.17429765,-121.6758945,0
0.326,0.2766,0.5833,0.6464,-1.7219,-0.1448,-1.6923,-0.2642,0.1108,0.0991,848.9465,-1.98,-44.4,-39.24,10690,-127.995,-39.683,-23.164,49.17429765,-121.6758945,0
0.328,0.2766,0.5833,0.6464,-1.7219,-0.1448,-1.6923,-0.2642,0.1108,0.0991,849.0083,-1.98,-44.4,-39.24,10690,-127.995,-39.683,-23.164,49.17429765,-121.6758945,0
0.33,0.2766,0.5833,0.6464,-1.7219,-0.1448,-1.6923,-0.2642,0.1108,0.0991,849.0083,-1.98,-44.4,-39.24,9592,-127.995,-39.683,-23.164,49.17429765,-121.6758945,0
0.34,0.2766,0.5833,0.6464,-1.0122,0.0759,-0.7715,-0.2642,0.1108,0.0991,849.0083,-1.98,-44.4,-39.24,9592,-127.995,-39.683,-23.164,49.17429765,-121.6758945,0
0.38,0.4476,0.5272,0.6254,-1.0122,0.0759,-0.7715,-0.2642,0.1108,0.0991,849.0083,-1.98,-44.4,-39.24,9592,-130.185,-34.43,-35.591,49.17429765,-121.6758945,0
0.383,0.4476,0.5272,0.6254,-1.0122,0.0759,-0.7715,-0.2642,0.1108,0.0991,849.0083,-2.04,-44.46,-39.18,9592,-130.386,-34.43,-35.591,49.17429765,-121.6758945,0
0.385,0.4476,0.5272,0.6254,-1.0122,0.0759,-0.7715,-0.0075,0.3121,0.1427,849.0083,-2.04,-44.46,-39.18,9592,-130.386,-34.43,-35.591,49.17429765,-121.6758945,0
0.401,0.4476,0.5272,0.6254,0.6833,-0.4405,-1.0146,-0.0075,0.3121,0.1427,849.0083,-2.04,-44.46,-39.18,9592,-130.386,-34.43,-35.591,49.17429765,-121.6758945,0
0.44,0.3166,0.598,0.5995,0.6833,-0.4405,-1.0146,-0.0075,0.3121,0.1427,849.0083,-2.04,-44.46,-39.18,9592,-120.702,-41.415,-27.842,49.17429765,-121.6758945,0
0.444,0.3166,0.598,0.5995,0.6833,-0.4405,-1.0146,-0.0075,0.3121,0.1427,849.0083,-2.1,-44.52,-39.18,9592,-120.851,-41.415,-27.842,49.17429765,-121.6758945,0
0.447,0.3166,0.598,0.5995,0.6833,-0.4405,-1.0146,-0.4474,0.7989,0.0575,849.0083,-2.1,-44.52,-39.18,9592,-120.851,-41.415,-27.842,49.17429765,-121.6758945,0
0.46,0.3166,0.598,0.5995,-0.2678,0.386,-1.5306,-0.4474,0.7989,0.0575,849.0083,-2.1,-44.52,-39.18,9592,-120.851,-41.415,-27.842,49.17429765,-121.6758945,0
0.506,0.1309,0.4099,0.7641,-0.2678,0.386,-1.5306,-0.4474,0.7989,0.0575,849.0083,-2.1,-44.52,-39.18,9592,-167.86,-27.865,-9.724,49.17429765,-121.6758945,0
0.51,0.1309,0.4099,0.7641,-0.2678,0.386,-1.5306,-0.4474,0.7989,0.0575,849.0083,-2.16,-44.58,-39.12,9592,-168.081,-27.865,-9.724,49.17429765,-121.6758945,0
0.513,0.1309,0.4099,0.7641,-0.2678,0.386,-1.5306,-0.6157,0.636,0.3494,849.0083,-2.16,-44.58,-39.12,9592,-168.081,-27.865,-9.724,49.17429765,-121.6758945,0
0.517,0.1309,0.4099,0.7641,-0.2678,0.386,-1.5306,-0.6157,0.636,0.3494,849.0273,-2.16,-44.58,-39.12,9592,-168.081,-27.865,-9.724,49.17429765,-121.6758945,0
0.524,0.1309,0.4099,0.7641,-0.2678,0.386,-1.5306,-0.6157,0.636,0.3494,849.0273,-2.16,-44.58,-39.12,10690,-168.081,-27.865,-9.724,49.17429765,-121.6758945,0
0.526,0.1309,0.4099,0.7641,-1.7972,-1.0827,-0.301,-0.6157,0.636,0.3494,849.0273,-2.16,-44.58,-39.12,10690,-168.081,-27.865,-9.724,49.17429765,-121.6758945,0
0.56,0.3797,0.5101,0.7866,-1.7972,-1.0827,-0.301,-0.6157,0.636,0.3494,849.0273,-2.16,-44.58,-39.12,10690,-143.373,-30.283,-25.764,49.17429765,-121.6758945,0
0.565,0.3797,0.5101,0.7866,-1.7972,-1.0827,-0.301,-0.6157,0.636,0.3494,849.0273,-2.22,-44.58,-39.06,10690,-143.539,-30.283,-25.764,49.17429765,-121.6758945,0
0.567,0.3797,0.5101,0.7866,-1.7972,-1.0827,-0.301,-0.539,0.8075,0.2919,849.0273,-2.22,-44.58,-39.06,10690,-143.539,-30.283,-25.764,49.17429765,-121.6758945,0
0.58,0.3797,0.5101,0.7866,0.8788,0.1928,-0.3535,-0.539,0.8075,0.2919,849.0273,-2.22,-44.58,-39.06,10690,-143.539,-30.283,-25.764,49.17429765,-121.6758945,0
0.621,0.3308,0.4328,0.8931,0.8788,0.1928,-0.3535,-0.539,0.8075,0.2919,849.0273,-2.22,-44.58,-39.06,10690,-155.423,-24.441,-20.323,49.17429765,-121.6758945,0
0.625,0.3308,0.4328,0.8931,0.8788,0.1928,-0.3535,-0.539,0.8075,0.2919,849.0273,-2.22,-44.58,-39.06,10690,-155.423,-24.441,-20.323,49.17429765,-121.6758945,0
0.627,0.3308,0.4328,0.8931,0.8788,0.1928,-0.3535,-0.4208,0.6019,-0.0213,849.0273,-2.22,-44.58,-39.06,10690,-155.423,-24.441,-20.323,49.17429765,-121.6758945,0
0.64,0.3308,0.4328,0.8931,0.6702,-0.3022,0.4515,-0.4208,0.6019,-0.0213,849.0273,-2.22,-44.58,-39.06,10690,-155.423,-24.441,-20.323,49.17429765,-121.6758945,0
0.68,0.1627,0.2951,0.8413,0.6702,-0.3022,0.4515,-0.4208,0.6019,-0.0213,849.0273,-2.22,-44.58,-39.06,10690,-169.943,-19,-10.946,49.17429765,-121.6758945,0
0.683,0.1627,0.2951,0.8413,0.6702,-0.3022,0.4515,-0.4208,0.6019,-0.0213,849.0273,-2.22,-44.58,-39.06,10690,-169.943,-19,-10.946,49.17429765,-121.6758945,0
0.686,0.1627,0.2951,0.8413,0.6702,-0.3022,0.4515,-0.7244,0.4922,0.9023,849.0273,-2.22,-44.58,-39.06,10690,-169.943,-19,-10.946,49.17429765,-121.6758945,0
0.691,0.1627,0.2951,0.8413,0.6702,-0.3022,0.4515,-0.7244,0.4922,0.9023,848.9832,-2.22,-44.58,-39.06,10690,-169.943,-19,-10.946,49.17429765,-121.6758945,0
0.694,0.1627,0.2951,0.8413,0.6702,-0.3022,0.4515,-0.7244,0.4922,0.9023,848.9832,-2.22,-44.58,-39.06,11858,-169.943,-19,-10.946,49.17429765,-121.6758945,0
0.701,0.1627,0.2951,0.8413,-0.7541,-1.1361,-0.3823,-0.7244,0.4922,0.9023,848.9832,-2.22,-44.58,-39.06,11858,-169.943,-19,-10.946,49.17429765,-121.6758945,0
0.741,0.3112,0.3039,0.9039,-0.7541,-1.1361,-0.3823,-0.7244,0.4922,0.9023,848.9832,-2.22,-44.58,-39.06,11858,-161.137,-17.633,-19.001,49.17429765,-121.6758945,0
0.745,0.3112,0.3039,0.9039,-0.7541,-1.1361,-0.3823,-0.7244,0.4922,0.9023,848.9832,-2.22,-44.52,-39.06,11858,-161.105,-17.633,-19.001,49.17429765,-121.6758945,0
0.748,0.3112,0.3039,0.9039,-0.7541,-1.1361,-0.3823,-0.4421,0.4378,1.8259,848.9832,-2.22,-44.52,-39.06,11858,-161.105,-17.633,-19.001,49.17429765,-121.6758945,0
0.761,0.3112,0.3039,0.9039,0.5546,-0.4728,0.0242,-0.4421,0.4378,1.8259,848.9832,-2.22,-44.52,-39.06,11858,-161.105,-17.633,-19.001,49.17429765,-121.6758945,0
0.803,0.2062,0.2555,0.4436,0.5546,-0.4728,0.0242,-0.4421,0.4378,1.8259,848.9832,-2.22,-44.52,-39.06,11858,-147.44,-27.577,-24.93,49.17429765,-121.6758945,0
0.808,0.2062,0.2555,0.4436,0.5546,-0.4728,0.0242,-0.4421,0.4378,1.8259,848.9832,-2.16,-44.46,-39.12,11858,-147.22,-27.577,-24.93,49.17429765,-121.6758945,0
0.811,0.2062,0.2555,0.4436,0.5546,-0.4728,0.0242,0.212,0.2131,2.4895,848.9832,-2.16,-44.46,-39.12,11858,-147.22,-27.577,-24.93,49.17429765,-121.6758945,0
0.822,0.2062,0.2555,0.4436,-0.8455,-0.7377,-4.4532,0.212,0.2131,2.4895,848.9832,-2.16,-44.46,-39.12,11858,-147.22,-27.577,-24.93,49.17429765,-121.6758945,0
0.865,0.6122,0.3366,0.727,-0.8455,-0.7377,-4.4532,0.212,0.2131,2.4895,848.9832,-2.16,-44.46,-39.12,11858,-143.183,-19.501,-40.102,49.17429765,-121.6758945,0
0.868,0.6122,0.3366,0.727,-0.8455,-0.7377,-4.4532,0.212,0.2131,2.4895,848.9832,-2.04,-44.28,-39.24,11858,-142.832,-19.501,-40.102,49.17429765,-121.6758945,0
0.875,0.6122,0.3366,0.727,-0.8455,-0.7377,-4.4532,-1.0844,0.3665,0.1864,848.9832,-2.04,-44.28,-39.24,11858,-142.832,-19.501,-40.102,49.17429765,-121.6758945,0
0.881,0.6122,0.3366,0.727,-0.8455,-0.7377,-4.4532,-1.0844,0.3665,0.1864,849.0234,-2.04,-44.28,-39.24,11858,-142.832,-19.501,-40.102,49.17429765,-121.6758945,0
0.888,0.6122,0.3366,0.727,-0.8455,-0.7377,-4.4532,-1.0844,0.3665,0.1864,849.0234,-2.04,-44.28,-39.24,12479,-142.832,-19.501,-40.102,49.17429765,-121.6758945,0
0.891,0.6122,0.3366,0.727,3.0328,0.5206,-1.8001,-1.0844,0.3665,0.1864,849.0234,-2.04,-44.28,-39.24,12479,-142.832,-19.501,-40.102,49.17429765,-121.6758945,0
0.926,0.3684,0.1011,1.1032,3.0328,0.5206,-1.8001,-1.0844,0.3665,0.1864,849.0234,-2.04,-44.28,-39.24,12479,-165.588,-4.967,-18.466,49.17429765,-121.6758945,0
0.933,0.3684,0.1011,1.1032,3.0328,0.5206,-1.8001,-1.0844,0.3665,0.1864,849.0234,-1.98,-44.04,-39.36,12479,-165.378,-4.967,-18.466,49.17429765,-121.6758945,0
0.946,0.3684,0.1011,1.1032,3.0328,0.5206,-1.8001,-2.4554,-1.2496,0.5689,849.0234,-1.98,-44.04,-39.36,12479,-165.378,-4.967,-18.466,49.17429765,-121.6758945,0
0.954,0.3684,0.1011,1.1032,-0.1027,-0.4251,1.8462,-2.4554,-1.2496,0.5689,849.0234,-1.98,-44.04,-39.36,12479,-165.378,-4.967,-18.466,49.17429765,-121.6758945,0
0.983,0.5927,0.1529,1.1633,-0.1027,-0.4251,1.8462,-2.4554,-1.2496,0.5689,849.0234,-1.98,-44.04,-39.36,12479,-157.85,-6.678,-26.998,49.17429765,-121.6758945,0
0.987,0.5927,0.1529,1.1633,-0.1027,-0.4251,1.8462,-2.4554,-1.2496,0.5689,849.0234,-1.98,-43.26,-39.66,12479,-157.263,-6.678,-26.998,49.17429765,-121.6758945,0
0.997,0.5927,0.1529,1.1633,-0.1027,-0.4251,1.8462,-1.0418,-1.5478,0.2716,849.0234,-1.98,-43.26,-39.66,12479,-157.263,-6.678,-26.998,49.17429765,-121.6758945,0
1.003,0.5927,0.1529,1.1633,1.2236,0.7406,2.7648,-1.0418,-1.5478,0.2716,849.0234,-1.98,-43.26,-39.66,12479,-157.263,-6.678,-26.998,49.17429765,-121.6758945,0
1.045,0.3484,0.0918,0.7182,1.2236,0.7406,2.7648,-1.0418,-1.5478,0.2716,849.0234,-1.98,-43.26,-39.66,12479,-158.189,-6.56,-25.877,49.17429765,-121.6758945,0
1.05,0.3484,0.0918,0.7182,1.2236,0.7406,2.7648,-1.0418,-1.5478,0.2716,849.0234,-2.28,-42.06,-39.96,12479,-157.722,-6.56,-25.877,49.17429765,-121.6758945,0
1.054,0.3484,0.0918,0.7182,1.2236,0.7406,2.7648,0.9406,-2.8688,0.3025,849.0234,-2.28,-42.06,-39.96,12479,-157.722,-6.56,-25.877,49.17429765,-121.6758945,0
1.059,0.3484,0.0918,0.7182,1.2236,0.7406,2.7648,0.9406,-2.8688,0.3025,849.1592,-2.28,-42.06,-39.96,12479,-157.722,-6.56,-25.877,49.17429765,-121.6758945,0
1.063,0.3484,0.0918,0.7182,1.2236,0.7406,2.7648,0.9406,-2.8688,0.3025,849.1592,-2.28,-42.06,-39.96,15018,-157.722,-6.56,-25.877,49.17429765,-121.6758945,0
1.071,0.3484,0.0918,0.7182,-2.4529,-0.1981,-0.7426,0.9406,-2.8688,0.3025,849.1592,-2.28,-42.06,-39.96,15018,-157.722,-6.56,-25.877,49.17429765,-121.6758945,0
1.099,0.5223,0.0082,0.0986,-2.4529,-0.1981,-0.7426,0.9406,-2.8688,0.3025,849.1592,-2.28,-42.06,-39.96,15018,-137.172,-0.889,-79.306,49.17429765,-121.6758945,0
1.101,0.5223,0.0082,0.0986,-2.4529,-0.1981,-0.7426,0.9406,-2.8688,0.3025,849.1592,-2.76,-40.8,-40.26,15018,-136.142,-0.889,-79.306,49.17429765,-121.6758945,0
1.103,0.5223,0.0082,0.0986,-2.4529,-0.1981,-0.7426,0.5028,-4.685,0.7191,849.1592,-2.76,-40.8,-40.26,15018,-136.142,-0.889,-79.306,49.17429765,-121.6758945,0
1.119,0.5223,0.0082,0.0986,-2.5091,-0.9402,-5.1115,0.5028,-4.685,0.7191,849.1592,-2.76,-40.8,-40.26,15018,-136.142,-0.889,-79.306,49.17429765,-121.6758945,0
1.166,0.7857,0.3767,1.243,-2.5091,-0.9402,-5.1115,0.5028,-4.685,0.7191,849.1592,-2.76,-40.8,-40.26,15018,-148.018,-14.367,-32.297,49.17429765,-121.6758945,0
1.172,0.7857,0.3767,1.243,-2.5091,-0.9402,-5.1115,0.5028,-4.685,0.7191,849.1592,-4.14,-39.6,-40.26,15018,-148.479,-14.367,-32.297,49.17429765,-121.6758945,0
1.18,0.7857,0.3767,1.243,-2.5091,-0.9402,-5.1115,0.065,-4.9279,1.0173,849.1592,-4.14,-39.6,-40.26,15018,-148.479,-14.367,-32.297,49.17429765,-121.6758945,0
1.185,0.7857,0.3767,1.243,-1.4419,3.1512,8.6728,0.065,-4.9279,1.0173,849.1592,-4.14,-39.6,-40.26,15018,-148.479,-14.367,-32.297,49.17429765,-121.6758945,0
1.222,0.4021,-0.217,0.0532,-1.4419,3.1512,8.6728,0.065,-4.9279,1.0173,849.1592,-4.14,-39.6,-40.26,15018,-134.982,28.146,-82.464,49.17429765,-121.6758945,0
1.226,0.4021,-0.217,0.0532,-1.4419,3.1512,8.6728,0.065,-4.9279,1.0173,849.1592,-6.36,-38.34,-39.66,15018,-135.553,28.146,-82.464,49.17429765,-121.6758945,0
1.229,0.4021,-0.217,0.0532,-1.4419,3.1512,8.6728,2.5598,-3.9756,2.2126,849.1592,-6.36,-38.34,-39.66,15018,-135.553,28.146,-82.464,49.17429765,-121.6758945,0
1.232,0.4021,-0.217,0.0532,-1.4419,3.1512,8.6728,2.5598,-3.9756,2.2126,849.1694,-6.36,-38.34,-39.66,15018,-135.553,28.146,-82.464,49.17429765,-121.6758945,0
1.237,0.4021,-0.217,0.0532,-1.4419,3.1512,8.6728,2.5598,-3.9756,2.2126,849.1694,-6.36,-38.34,-39.66,9180,-135.553,28.146,-82.464,49.17429765,-121.6758945,0
1.24,0.4021,-0.217,0.0532,-5.7648,-1.9287,-0.8685,2.5598,-3.9756,2.2126,849.1694,-6.36,-38.34,-39.66,9180,-135.553,28.146,-82.464,49.17429765,-121.6758945,0
1.281,1.6031,-0.1178,0.34,-5.7648,-1.9287,-0.8685,2.5598,-3.9756,2.2126,849.1694,-6.36,-38.34,-39.66,9180,-136.343,4.112,-78.025,49.17429765,-121.6758945,0
1.29,1.6031,-0.1178,0.34,-5.7648,-1.9287,-0.8685,2.5598,-3.9756,2.2126,849.1694,-9.06,-37.02,-38.34,9180,-136.945,4.112,-78.025,49.17429765,-121.6758945,0
1.294,1.6031,-0.1178,0.34,-5.7648,-1.9287,-0.8685,4.1002,-5.4584,1.7673,849.1694,-9.06,-37.02,-38.34,9180,-136.945,4.112,-78.025,49.17429765,-121.6758945,0
1.31,1.6031,-0.1178,0.34,6.1325,0.2171,4.9276,4.1002,-5.4584,1.7673,849.1694,-9.06,-37.02,-38.34,9180,-136.945,4.112,-78.025,49.17429765,-121.6758945,0
1.341,0.8932,-0.3309,-0.0875,6.1325,0.2171,4.9276,4.1002,-5.4584,1.7673,849.1694,-9.06,-37.02,-38.34,9180,-133.121,20.237,-95.597,49.17429765,-121.6758945,0
1.344,0.8932,-0.3309,-0.0875,6.1325,0.2171,4.9276,4.1002,-5.4584,1.7673,849.1694,-12.12,-35.52,-36.12,9180,-134.338,20.237,-95.597,49.17429765,-121.6758945,0
1.347,0.8932,-0.3309,-0.0875,6.1325,0.2171,4.9276,4.1098,-3.9148,-0.2439,849.1694,-12.12,-35.52,-36.12,9180,-134.338,20.237,-95.597,49.17429765,-121.6758945,0
1.36,0.8932,-0.3309,-0.0875,-0.2624,-1.3885,2.5264,4.1098,-3.9148,-0.2439,849.1694,-12.12,-35.52,-36.12,9180,-134.338,20.237,-95.597,49.17429765,-121.6758945,0
1.401,0.4798,-0.0255,-0.2957,-0.2624,-1.3885,2.5264,4.1098,-3.9148,-0.2439,849.1694,-12.12,-35.52,-36.12,9180,-133.402,2.587,-121.642,49.17429765,-121.6758945,0
1.406,0.4798,-0.0255,-0.2957,-0.2624,-1.3885,2.5264,4.1098,-3.9148,-0.2439,849.1694,-15.24,-34.02,-32.76,9180,-133.282,2.587,-121.642,49.17429765,-121.6758945,0
1.412,0.4798,-0.0255,-0.2957,-0.2624,-1.3885,2.5264,1.2421,-1.3401,1.2645,849.1694,-15.24,-34.02,-32.76,9180,-133.282,2.587,-121.642,49.17429765,-121.6758945,0
1.417,0.4798,-0.0255,-0.2957,-0.2624,-1.3885,2.5264,1.2421,-1.3401,1.2645,849.1704,-15.24,-34.02,-32.76,9180,-133.282,2.587,-121.642,49.17429765,-121.6758945,0
1.42,0.4798,-0.0255,-0.2957,-0.2624,-1.3885,2.5264,1.2421,-1.3401,1.2645,849.1704,-15.24,-34.02,-32.76,9180,-133.282,2.587,-121.642,49.17429765,-121.6758945,0
1.425,0.4798,-0.0255,-0.2957,-3.9711,2.6163,0.6703,1.2421,-1.3401,1.2645,849.1704,-15.24,-34.02,-32.76,9180,-133.282,2.587,-121.642,49.17429765,-121.6758945,0
1.457,1.3324,-0.6528,-0.2561,-3.9711,2.6163,0.6703,1.2421,-1.3401,1.2645,849.1704,-15.24,-34.02,-32.76,9180,-134.519,25.695,-100.879,49.17429765,-121.6758945,0
1.459,1.3324,-0.6528,-0.2561,-3.9711,2.6163,0.6703,1.2421,-1.3401,1.2645,849.1704,-18.36,-32.22,-29.04,9180,-137.147,25.695,-100.879,49.17429765,-121.6758945,0
1.461,1.3324,-0.6528,-0.2561,-3.9711,2.6163,0.6703,4.375,-1.3657,1.5287,849.1704,-18.36,-32.22,-29.04,9180,-137.147,25.695,-100.879,49.17429765,-121.6758945,0
1.478,1.3324,-0.6528,-0.2561,5.0666,-1.8303,0.8732,4.375,-1.3657,1.5287,849.1704,-18.36,-32.22,-29.04,9180,-137.147,25.695,-100.879,49.17429765,-121.6758945,0
1.525,0.6337,-0.4149,-0.455,5.0666,-1.8303,0.8732,4.375,-1.3657,1.5287,849.1704,-18.36,-32.22,-29.04,9180,-128.721,28.005,-125.675,49.17429765,-121.6758945,0
1.532,0.6337,-0.4149,-0.455,5.0666,-1.8303,0.8732,4.375,-1.3657,1.5287,849.1704,-21.3,-30,-25.08,9180,-130.23,28.005,-125.675,49.17429765,-121.6758945,0
1.54,0.6337,-0.4149,-0.455,5.0666,-1.8303,0.8732,1.0131,1.2432,0.3174,849.1704,-21.3,-30,-25.08,9180,-130.23,28.005,-125.675,49.17429765,-121.6758945,0
1.545,0.6337,-0.4149,-0.455,-1.7656,0.8438,-1.5525,1.0131,1.2432,0.3174,849.1704,-21.3,-30,-25.08,9180,-130.23,28.005,-125.675,49.17429765,-121.6758945,0
1.579,0.6992,-0.2986,-0.4765,-1.7656,0.8438,-1.5525,1.0131,1.2432,0.3174,849.1704,-21.3,-30,-25.08,9180,-131.987,19.439,-124.272,49.17429765,-121.6758945,0
1.58,0.6992,-0.2986,-0.4765,-1.7656,0.8438,-1.5525,1.0131,1.2432,0.3174,849.1704,-24.78,-21.9,-23.76,9180,-124.418,19.439,-124.272,49.17429765,-121.6758945,0
1.583,0.6992,-0.2986,-0.4765,-1.7656,0.8438,-1.5525,0.4261,-0.1108,0.7169,849.1704,-24.78,-21.9,-23.76,9180,-124.418,19.439,-124.272,49.17429765,-121.6758945,0
1.585,0.6992,-0.2986,-0.4765,-1.7656,0.8438,-1.5525,0.4261,-0.1108,0.7169,849.1519,-24.78,-21.9,-23.76,9180,-124.418,19.439,-124.272,49.17429765,-121.6758945,0
1.587,0.6992,-0.2986,-0.4765,-1.7656,0.8438,-1.5525,0.4261,-0.1108,0.7169,849.1519,-24.78,-21.9,-23.76,9180,-124.418,19.439,-124.272,49.17429765,-121.6758945,0
1.597,0.6992,-0.2986,-0.4765,-0.9208,2.2971,-1.7595,0.4261,-0.1108,0.7169,849.1519,-24.78,-21.9,-23.76,9180,-124.418,19.439,-124.272,49.17429765,-121.6758945,0
1.638,0.4378,-0.8424,-0.4325,-0.9208,2.2971,-1.7595,0.4261,-0.1108,0.7169,849.1519,-24.78,-21.9,-23.76,9180,-111.719,53.852,-134.65,49.17429765,-121.6758945,0
1.641,0.4378,-0.8424,-0.4325,-0.9208,2.2971,-1.7595,0.4261,-0.1108,0.7169,849.1519,-27.72,-19.32,-19.8,9180,-115.602,53.852,-134.65,49.17429765,-121.6758945,0
1.645,0.4378,-0.8424,-0.4325,-0.9208,2.2971,-1.7595,0.9694,0.13,0.1268,849.1519,-27.72,-19.32,-19.8,9180,-115.602,53.852,-134.65,49.17429765,-121.6758945,0
1.658,0.4378,-0.8424,-0.4325,-3.298,-2.5816,-1.7105,0.9694,0.13,0.1268,849.1519,-27.72,-19.32,-19.8,9180,-115.602,53.852,-134.65,49.17429765,-121.6758945,0
1.697,0.3718,-0.9069,-0.5102,-3.298,-2.5816,-1.7105,0.9694,0.13,0.1268,849.1519,-27.72,-19.32,-19.8,9180,-108.36,55.159,-143.914,49.17429765,-121.6758945,0
1.699,0.3718,-0.9069,-0.5102,-3.298,-2.5816,-1.7105,0.9694,0.13,0.1268,849.1519,-30.66,-16.56,-15.78,9180,-112.072,55.159,-143.914,49.17429765,-121.6758945,0
1.701,0.3718,-0.9069,-0.5102,-3.298,-2.5816,-1.7105,0.6477,-0.3771,1.1494,849.1519,-30.66,-16.56,-15.78,9180,-112.072,55.159,-143.914,49.17429765,-121.6758945,0
1.717,0.3718,-0.9069,-0.5102,-3.4699,-2.6304,-2.4684,0.6477,-0.3771,1.1494,849.1519,-30.66,-16.56,-15.78,9180,-112.072,55.159,-143.914,49.17429765,-121.6758945,0
1.764,0.6034,-0.7799,-0.5116,-3.4699,-2.6304,-2.4684,0.6477,-0.3771,1.1494,849.1519,-30.66,-16.56,-15.78,9180,-123.445,44.589,-130.294,49.17429765,-121.6758945,0
1.772,0.6034,-0.7799,-0.5116,-3.4699,-2.6304,-2.4684,0.6477,-0.3771,1.1494,849.1519,-33.66,-13.68,-11.76,9180,-126.115,44.589,-130.294,49.17429765,-121.6758945,0
1.778,0.6034,-0.7799,-0.5116,-3.4699,-2.6304,-2.4684,0.6914,-0.5529,1.1143,849.1519,-33.66,-13.68,-11.76,9180,-126.115,44.589,-130.294,49.17429765,-121.6758945,0
1.785,0.6034,-0.7799,-0.5116,-3.4699,-2.6304,-2.4684,0.6914,-0.5529,1.1143,849.1445,-33.66,-13.68,-11.76,9180,-126.115,44.589,-130.294,49.17429765,-121.6758945,0
1.787,0.6034,-0.7799,-0.5116,-3.4699,-2.6304,-2.4684,0.6914,-0.5529,1.1143,849.1445,-33.66,-13.68,-11.76,36,-126.115,44.589,-130.294,49.17429765,-121.6758945,0
1.789,0.6034,-0.7799,-0.5116,-0.5651,-0.7406,-2.454,0.6914,-0.5529,1.1143,849.1445,-33.66,-13.68,-11.76,36,-126.115,44.589,-130.294,49.17429765,-121.6758945,0
1.818,0.4178,-0.497,-0.4393,-0.5651,-0.7406,-2.454,0.6914,-0.5529,1.1143,849.1445,-33.66,-13.68,-11.76,36,-121.459,39.344,-136.441,49.17429765,-121.6758945,0
1.82,0.4178,-0.497,-0.4393,-0.5651,-0.7406,-2.454,0.6914,-0.5529,1.1143,849.1445,-36.6,-10.56,-7.74,36,-122.889,39.344,-136.441,49.17429765,-121.6758945,0
1.823,0.4178,-0.497,-0.4393,-0.5651,-0.7406,-2.454,-0.6818,0.3931,1.5894,849.1445,-36.6,-10.56,-7.74,36,-122.889,39.344,-136.441,49.17429765,-121.6758945,0
1.837,0.4178,-0.497,-0.4393,-1.7692,2.4909,-1.548,-0.6818,0.3931,1.5894,849.1445,-36.6,-10.56,-7.74,36,-122.889,39.344,-136.441,49.17429765,-121.6758945,0
1.879,0.5306,-0.6504,-0.4813,-1.7692,2.4909,-1.548,-0.6818,0.3931,1.5894,849.1445,-36.6,-10.56,-7.74,36,-126.63,42.235,-132.212,49.17429765,-121.6758945,0
1.88,0.5306,-0.6504,-0.4813,-1.7692,2.4909,-1.548,-0.6818,0.3931,1.5894,849.1445,-39.48,-7.32,-3.66,36,-128.699,42.235,-132.212,49.17429765,-121.6758945,0
1.882,0.5306,-0.6504,-0.4813,-1.7692,2.4909,-1.548,-1.1963,-0.3281,1.1452,849.1445,-39.48,-7.32,-3.66,36,-128.699,42.235,-132.212,49.17429765,-121.6758945,0
1.897,0.5306,-0.6504,-0.4813,-0.0804,1.1109,-1.2155,-1.1963,-0.3281,1.1452,849.1445,-39.48,-7.32,-3.66,36,-128.699,42.235,-132.212,49.17429765,-121.6758945,0
1.938,0.4119,-0.8551,-0.1584,-0.0804,1.1109,-1.2155,-1.1963,-0.3281,1.1452,849.1445,-39.48,-7.32,-3.66,36,-153.282,62.704,-111.031,49.17429765,-121.6758945,0
1.939,0.4119,-0.8551,-0.1584,-0.0804,1.1109,-1.2155,-1.1963,-0.3281,1.1452,849.1445,-42.06,-4.32,0.78,36,-158.841,62.704,-111.031,49.17429765,-121.6758945,0
1.941,0.4119,-0.8551,-0.1584,-0.0804,1.1109,-1.2155,-1.3199,-0.1726,1.1643,849.1445,-42.06,-4.32,0.78,36,-158.841,62.704,-111.031,49.17429765,-121.6758945,0
1.944,0.4119,-0.8551,-0.1584,-0.0804,1.1109,-1.2155,-1.3199,-0.1726,1.1643,849.0771,-42.06,-4.32,0.78,36,-158.841,62.704,-111.031,49.17429765,-121.6758945,0
1.945,0.4119,-0.8551,-0.1584,-0.0804,1.1109,-1.2155,-1.3199,-0.1726,1.1643,849.0771,-42.06,-4.32,0.78,120,-158.841,62.704,-111.031,49.17429765,-121.6758945,0
1.957,0.4119,-0.8551,-0.1584,-0.4817,-0.7489,2.6331,-1.3199,-0.1726,1.1643,849.0771,-42.06,-4.32,0.78,120,-158.841,62.704,-111.031,49.17429765,-121.6758945,0
2.001,0.4686,-0.9445,-0.4379,-0.4817,-0.7489,2.6331,-1.3199,-0.1726,1.1643,849.0771,-42.06,-4.32,0.78,120,-135.148,55.825,-133.059,49.17429765,-121.6758945,0
2.002,0.4686,-0.9445,-0.4379,-0.4817,-0.7489,2.6331,-1.3199,-0.1726,1.1643,849.0771,-44.1,-1.56,5.22,120,-139.218,55.825,-133.059,49.17429765,-121.6758945,0
2.004,0.4686,-0.9445,-0.4379,-0.4817,-0.7489,2.6331,0.3164,0.0352,0.1417,849.0771,-44.1,-1.56,5.22,120,-139.218,55.825,-133.059,49.17429765,-121.6758945,0
2.016,0.4686,-0.9445,-0.4379,0.2439,-1.3883,-0.3727,0.3164,0.0352,0.1417,849.0771,-44.1,-1.56,5.22,120,-139.218,55.825,-133.059,49.17429765,-121.6758945,0
2.058,0.3777,-0.9284,-0.3304,0.2439,-1.3883,-0.3727,0.3164,0.0352,0.1417,849.0771,-44.1,-1.56,5.22,120,-142.71,61.61,-131.175,49.17429765,-121.6758945,0
2.06,0.3777,-0.9284,-0.3304,0.2439,-1.3883,-0.3727,0.3164,0.0352,0.1417,849.0771,-46.02,1.32,9.78,120,-147.141,61.61,-131.175,49.17429765,-121.6758945,0
2.064,0.3777,-0.9284,-0.3304,0.2439,-1.3883,-0.3727,0.375,-0.4133,-0.5262,849.0771,-46.02,1.32,9.78,120,-147.141,61.61,-131.175,49.17429765,-121.6758945,0
2.076,0.3777,-0.9284,-0.3304,-0.8707,-1.2351,0.4274,0.375,-0.4133,-0.5262,849.0771,-46.02,1.32,9.78,120,-147.141,61.61,-131.175,49.17429765,-121.6758945,0
2.117,0.3743,-0.8576,-0.8395,-0.8707,-1.2351,0.4274,0.375,-0.4133,-0.5262,849.0771,-46.02,1.32,9.78,120,-115.209,43.015,-155.971,49.17429765,-121.6758945,0
2.119,0.3743,-0.8576,-0.8395,-0.8707,-1.2351,0.4274,0.375,-0.4133,-0.5262,849.0771,-46.92,4.44,13.98,120,-116.463,43.015,-155.971,49.17429765,-121.6758945,0
2.121,0.3743,-0.8576,-0.8395,-0.8707,-1.2351,0.4274,-0.8213,-1.3028,0.6732,849.0771,-46.92,4.44,13.98,120,-116.463,43.015,-155.971,49.17429765,-121.6758945,0
2.125,0.3743,-0.8576,-0.8395,-0.8707,-1.2351,0.4274,-0.8213,-1.3028,0.6732,849.0017,-46.92,4.44,13.98,120,-116.463,43.015,-155.971,49.17429765,-121.6758945,0
2.127,0.3743,-0.8576,-0.8395,-0.8707,-1.2351,0.4274,-0.8213,-1.3028,0.6732,849.0017,-46.92,4.44,13.98,155,-116.463,43.015,-155.971,49.17429765,-121.6758945,0
2.137,0.3743,-0.8576,-0.8395,-0.1956,-0.5077,-3.881,-0.8213,-1.3028,0.6732,849.0017,-46.92,4.44,13.98,155,-116.463,43.015,-155.971,49.17429765,-121.6758945,0
2.177,0.1847,-0.7843,-0.3138,-0.1956,-0.5077,-3.881,-0.8213,-1.3028,0.6732,849.0017,-46.92,4.44,13.98,155,-132.589,65.099,-149.516,49.17429765,-121.6758945,0
2.179,0.1847,-0.7843,-0.3138,-0.1956,-0.5077,-3.881,-0.8213,-1.3028,0.6732,849.0017,-46.86,7.5,17.64,155,-135.683,65.099,-149.516,49.17429765,-121.6758945,0
2.181,0.1847,-0.7843,-0.3138,-0.1956,-0.5077,-3.881,-1.0578,-1.061,0.2088,849.0017,-46.86,7.5,17.64,155,-135.683,65.099,-149.516,49.17429765,-121.6758945,0
2.197,0.1847,-0.7843,-0.3138,-1.4655,0.0257,2.0214,-1.0578,-1.061,0.2088,849.0017,-46.86,7.5,17.64,155,-135.683,65.099,-149.516,49.17429765,-121.6758945,0
2.237,0.2985,-0.3812,0.1094,-1.4655,0.0257,2.0214,-1.0578,-1.061,0.2088,849.0017,-46.86,7.5,17.64,155,126.656,50.168,-69.877,49.17429765,-121.6758945,0
2.239,0.2985,-0.3812,0.1094,-1.4655,0.0257,2.0214,-1.0578,-1.061,0.2088,849.0017,-46.08,10.5,20.82,155,120.675,50.168,-69.877,49.17429765,-121.6758945,0
2.241,0.2985,-0.3812,0.1094,-1.4655,0.0257,2.0214,-0.5614,1.1217,1.2773,849.0017,-46.08,10.5,20.82,155,120.675,50.168,-69.877,49.17429765,-121.6758945,0
2.257,0.2985,-0.3812,0.1094,0.0594,4.0795,6.2565,-0.5614,1.1217,1.2773,849.0017,-46.08,10.5,20.82,155,120.675,50.168,-69.877,49.17429765,-121.6758945,0
2.296,0.322,-0.5595,-0.1413,0.0594,4.0795,6.2565,-0.5614,1.1217,1.2773,849.0017,-46.08,10.5,20.82,155,179.15,57.853,-113.689,49.17429765,-121.6758945,0
2.298,0.322,-0.5595,-0.1413,0.0594,4.0795,6.2565,-0.5614,1.1217,1.2773,849.0017,-44.88,13.38,23.28,155,174.724,57.853,-113.689,49.17429765,-121.6758945,0
2.3,0.322,-0.5595,-0.1413,0.0594,4.0795,6.2565,-0.4783,0.0288,0.7073,849.0017,-44.88,13.38,23.28,155,174.724,57.853,-113.689,49.17429765,-121.6758945,0
2.304,0.322,-0.5595,-0.1413,0.0594,4.0795,6.2565,-0.4783,0.0288,0.7073,848.9597,-44.88,13.38,23.28,155,174.724,57.853,-113.689,49.17429765,-121.6758945,0
2.305,0.322,-0.5595,-0.1413,0.0594,4.0795,6.2565,-0.4783,0.0288,0.7073,848.9597,-44.88,13.38,23.28,26,174.724,57.853,-113.689,49.17429765,-121.6758945,0
2.319,0.322,-0.5595,-0.1413,0.8107,2.0866,4.3921,-0.4783,0.0288,0.7073,848.9597,-44.88,13.38,23.28,26,174.724,57.853,-113.689,49.17429765,-121.6758945,0
2.355,0.193,-0.7745,-0.5307,0.8107,2.0866,4.3921,-0.4783,0.0288,0.7073,848.9597,-44.88,13.38,23.28,26,-122.961,53.904,-160.015,49.17429765,-121.6758945,0
2.358,0.193,-0.7745,-0.5307,0.8107,2.0866,4.3921,-0.4783,0.0288,0.7073,848.9597,-43.44,16.44,24.84,26,-123.219,53.904,-160.015,49.17429765,-121.6758945,0
2.36,0.193,-0.7745,-0.5307,0.8107,2.0866,4.3921,0.1374,2.0634,-0.0565,848.9597,-43.44,16.44,24.84,26,-123.219,53.904,-160.015,49.17429765,-121.6758945,0
2.375,0.193,-0.7745,-0.5307,-1.1938,0.355,-0.3506,0.1374,2.0634,-0.0565,848.9597,-43.44,16.44,24.84,26,-123.219,53.904,-160.015,49.17429765,-121.6758945,0
2.415,0.4652,-1.1009,-0.5522,-1.1938,0.355,-0.3506,0.1374,2.0634,-0.0565,848.9597,-43.44,16.44,24.84,26,-150.368,56.742,-139.89,49.17429765,-121.6758945,0
2.416,0.4652,-1.1009,-0.5522,-1.1938,0.355,-0.3506,0.1374,2.0634,-0.0565,848.9597,-42.18,19.74,26.28,26,-151.898,56.742,-139.89,49.17429765,-121.6758945,0
2.417,0.4652,-1.1009,-0.5522,-1.1938,0.355,-0.3506,1.1803,1.5116,-0.179,848.9597,-42.18,19.74,26.28,26,-151.898,56.742,-139.89,49.17429765,-121.6758945,0
2.436,0.4652,-1.1009,-0.5522,0.8076,-3.1334,-0.5644,1.1803,1.5116,-0.179,848.9597,-42.18,19.74,26.28,26,-151.898,56.742,-139.89,49.17429765,-121.6758945,0
2.478,0.4656,-1.1933,-0.5664,0.8076,-3.1334,-0.5644,1.1803,1.5116,-0.179,848.9597,-42.18,19.74,26.28,26,-151.918,58.431,-140.574,49.17429765,-121.6758945,0
2.48,0.4656,-1.1933,-0.5664,0.8076,-3.1334,-0.5644,1.1803,1.5116,-0.179,848.9597,-41.04,23.16,27.72,26,-153.542,58.431,-140.574,49.17429765,-121.6758945,0
2.481,0.4656,-1.1933,-0.5664,0.8076,-3.1334,-0.5644,-0.0192,0.3633,0.391,848.9597,-41.04,23.16,27.72,26,-153.542,58.431,-140.574,49.17429765,-121.6758945,0
2.483,0.4656,-1.1933,-0.5664,0.8076,-3.1334,-0.5644,-0.0192,0.3633,0.391,848.9543,-41.04,23.16,27.72,26,-153.542,58.431,-140.574,49.17429765,-121.6758945,0
2.484,0.4656,-1.1933,-0.5664,0.8076,-3.1334,-0.5644,-0.0192,0.3633,0.391,848.9543,-41.04,23.16,27.72,39,-153.542,58.431,-140.574,49.17429765,-121.6758945,0
2.495,0.4656,-1.1933,-0.5664,0.8067,-3.8441,-1.0294,-0.0192,0.3633,0.391,848.9543,-41.04,23.16,27.72,39,-153.542,58.431,-140.574,49.17429765,-121.6758945,0
2.547,0.3821,-0.7125,-0.3773,0.8067,-3.8441,-1.0294,-0.0192,0.3633,0.391,848.9543,-41.04,23.16,27.72,39,-159.931,52.996,-134.636,49.17429765,-121.6758945,0
2.549,0.3821,-0.7125,-0.3773,0.8067,-3.8441,-1.0294,-0.0192,0.3633,0.391,848.9543,-40.32,26.94,29.4,39,-162.286,52.996,-134.636,49.17429765,-121.6758945,0
2.551,0.3821,-0.7125,-0.3773,0.8067,-3.8441,-1.0294,-0.1044,0.0554,0.1459,848.9543,-40.32,26.94,29.4,39,-162.286,52.996,-134.636,49.17429765,-121.6758945,0
2.557,0.3821,-0.7125,-0.3773,0.0365,0.8567,0.8824,-0.1044,0.0554,0.1459,848.9543,-40.32,26.94,29.4,39,-162.286,52.996,-134.636,49.17429765,-121.6758945,0
2.597,0.3977,-0.8263,-0.5058,0.0365,0.8567,0.8824,-0.1044,0.0554,0.1459,848.9543,-40.32,26.94,29.4,39,-147.652,52.093,-141.819,49.17429765,-121.6758945,0
2.598,0.3977,-0.8263,-0.5058,0.0365,0.8567,0.8824,-0.1044,0.0554,0.1459,848.9543,-39.48,30.6,31.2,39,-149.326,52.093,-141.819,49.17429765,-121.6758945,0
2.599,0.3977,-0.8263,-0.5058,0.0365,0.8567,0.8824,0.0245,-0.0202,0.1076,848.9543,-39.48,30.6,31.2,39,-149.326,52.093,-141.819,49.17429765,-121.6758945,0
2.615,0.3977,-0.8263,-0.5058,0.2111,-0.2443,-0.3847,0.0245,-0.0202,0.1076,848.9543,-39.48,30.6,31.2,39,-149.326,52.093,-141.819,49.17429765,-121.6758945,0
2.656,0.3904,-0.9612,-0.4813,0.2111,-0.2443,-0.3847,0.0245,-0.0202,0.1076,848.9543,-39.48,30.6,31.2,39,-155.963,57.186,-140.956,49.17429765,-121.6758945,0
2.658,0.3904,-0.9612,-0.4813,0.2111,-0.2443,-0.3847,0.0245,-0.0202,0.1076,848.9543,-38.7,34.14,33.06,39,-158.608,57.186,-140.956,49.17429765,-121.6758945,0
2.66,0.3904,-0.9612,-0.4813,0.2111,-0.2443,-0.3847,-0.1747,-0.1385,-0.0128,848.9543,-38.7,34.14,33.06,39,-158.608,57.186,-140.956,49.17429765,-121.6758945,0
2.664,0.3904,-0.9612,-0.4813,0.2111,-0.2443,-0.3847,-0.1747,-0.1385,-0.0128,848.981,-38.7,34.14,33.06,39,-158.608,57.186,-140.956,49.17429765,-121.6758945,0
2.666,0.3904,-0.9612,-0.4813,0.2111,-0.2443,-0.3847,-0.1747,-0.1385,-0.0128,848.981,-38.7,34.14,33.06,66,-158.608,57.186,-140.956,49.17429765,-121.6758945,0
2.676,0.3904,-0.9612,-0.4813,0.1737,-1.5656,-0.1183,-0.1747,-0.1385,-0.0128,848.981,-38.7,34.14,33.06,66,-158.608,57.186,-140.956,49.17429765,-121.6758945,0
2.715,0.2673,-0.8644,-0.4335,0.1737,-1.5656,-0.1183,-0.1747,-0.1385,-0.0128,848.981,-38.7,34.14,33.06,66,-147.443,59.497,-148.342,49.17429765,-121.6758945,0
2.717,0.2673,-0.8644,-0.4335,0.1737,-1.5656,-0.1183,-0.1747,-0.1385,-0.0128,848.981,-37.92,37.5,35.04,66,-149.75,59.497,-148.342,49.17429765,-121.6758945,0
2.719,0.2673,-0.8644,-0.4335,0.1737,-1.5656,-0.1183,-0.245,0.1012,0.1832,848.981,-37.92,37.5,35.04,66,-149.75,59.497,-148.342,49.17429765,-121.6758945,0
2.735,0.2673,-0.8644,-0.4335,-0.94,-0.6083,0.4077,-0.245,0.1012,0.1832,848.981,-37.92,37.5,35.04,66,-149.75,59.497,-148.342,49.17429765,-121.6758945,0
2.775,0.215,-0.7613,-0.4432,-0.94,-0.6083,0.4077,-0.245,0.1012,0.1832,848.981,-37.92,37.5,35.04,66,-136.719,57.095,-154.124,49.17429765,-121.6758945,0
2.777,0.215,-0.7613,-0.4432,-0.94,-0.6083,0.4077,-0.245,0.1012,0.1832,848.981,-37.14,40.62,37.08,66,-138.605,57.095,-154.124,49.17429765,-121.6758945,0
2.78,0.215,-0.7613,-0.4432,-0.94,-0.6083,0.4077,-0.114,0.327,0.228,848.981,-37.14,40.62,37.08,66,-138.605,57.095,-154.124,49.17429765,-121.6758945,0
2.795,0.215,-0.7613,-0.4432,-1.3918,0.4383,0.2966,-0.114,0.327,0.228,848.981,-37.14,40.62,37.08,66,-138.605,57.095,-154.124,49.17429765,-121.6758945,0
2.836,0.4647,-0.8522,-0.3411,-1.3918,0.4383,0.2966,-0.114,0.327,0.228,848.981,-37.14,40.62,37.08,66,158.624,55.925,-126.282,49.17429765,-121.6758945,0
2.837,0.4647,-0.8522,-0.3411,-1.3918,0.4383,0.2966,-0.114,0.327,0.228,848.981,-36.48,43.5,39.18,66,152.486,55.925,-126.282,49.17429765,-121.6758945,0
2.839,0.4647,-0.8522,-0.3411,-1.3918,0.4383,0.2966,-0.1374,0.3388,0.2791,848.981,-36.48,43.5,39.18,66,152.486,55.925,-126.282,49.17429765,-121.6758945,0
2.841,0.4647,-0.8522,-0.3411,-1.3918,0.4383,0.2966,-0.1374,0.3388,0.2791,849.0344,-36.48,43.5,39.18,66,152.486,55.925,-126.282,49.17429765,-121.6758945,0
2.846,0.4647,-0.8522,-0.3411,-1.3918,0.4383,0.2966,-0.1374,0.3388,0.2791,849.0344,-36.48,43.5,39.18,36,152.486,55.925,-126.282,49.17429765,-121.6758945,0
2.856,0.4647,-0.8522,-0.3411,1.1293,-0.3961,1.2564,-0.1374,0.3388,0.2791,849.0344,-36.48,43.5,39.18,36,152.486,55.925,-126.282,49.17429765,-121.6758945,0
2.897,0.4559,-0.7745,-0.1286,1.1293,-0.3961,1.2564,-0.1374,0.3388,0.2791,849.0344,-36.48,43.5,39.18,36,120.425,58.552,-105.75,49.17429765,-121.6758945,0
2.9,0.4559,-0.7745,-0.1286,1.1293,-0.3961,1.2564,-0.1374,0.3388,0.2791,849.0344,-36,46.14,41.16,36,116.712,58.552,-105.75,49.17429765,-121.6758945,0
2.906,0.4559,-0.7745,-0.1286,1.1293,-0.3961,1.2564,-0.3867,-0.1033,0.3228,849.0344,-36,46.14,41.16,36,116.712,58.552,-105.75,49.17429765,-121.6758945,0
2.914,0.4559,-0.7745,-0.1286,0.9243,0.3293,3.3113,-0.3867,-0.1033,0.3228,849.0344,-36,46.14,41.16,36,116.712,58.552,-105.75,49.17429765,-121.6758945,0
2.954,0.3093,-0.8605,-0.7379,0.9243,0.3293,3.3113,-0.3867,-0.1033,0.3228,849.0344,-36,46.14,41.16,36,-110.821,47.084,-157.258,49.17429765,-121.6758945,0
2.956,0.3093,-0.8605,-0.7379,0.9243,0.3293,3.3113,-0.3867,-0.1033,0.3228,849.0344,-35.52,48.66,43.02,36,-110.342,47.084,-157.258,49.17429765,-121.6758945,0
2.957,0.3093,-0.8605,-0.7379,0.9243,0.3293,3.3113,0.1289,0.3068,0.2876,849.0344,-35.52,48.66,43.02,36,-110.342,47.084,-157.258,49.17429765,-121.6758945,0
2.974,0.3093,-0.8605,-0.7379,-0.4575,-0.472,-2.6899,0.1289,0.3068,0.2876,849.0344,-35.52,48.66,43.02,36,-110.342,47.084,-157.258,49.17429765,-121.6758945,0
3.015,0.109,-0.8527,-0.538,-0.4575,-0.472,-2.6899,0.1289,0.3068,0.2876,849.0344,-35.52,48.66,43.02,36,-119.789,57.227,-168.551,49.17429765,-121.6758945,0
3.02,0.109,-0.8527,-0.538,-0.4575,-0.472,-2.6899,0.1289,0.3068,0.2876,849.0344,-35.04,51.06,44.88,36,-120.854,57.227,-168.551,49.17429765,-121.6758945,0
3.022,0.109,-0.8527,-0.538,-0.4575,-0.472,-2.6899,-0.4218,-0.0959,0.2088,849.0344,-35.04,51.06,44.88,36,-120.854,57.227,-168.551,49.17429765,-121.6758945,0
3.023,0.109,-0.8527,-0.538,-0.4575,-0.472,-2.6899,-0.4218,-0.0959,0.2088,848.9683,-35.04,51.06,44.88,36,-120.854,57.227,-168.551,49.17429765,-121.6758945,0
3.025,0.109,-0.8527,-0.538,-0.4575,-0.472,-2.6899,-0.4218,-0.0959,0.2088,848.9683,-35.04,51.06,44.88,19,-120.854,57.227,-168.551,49.17429765,-121.6758945,0
3.035,0.109,-0.8527,-0.538,-2.221,-0.4572,-0.4813,-0.4218,-0.0959,0.2088,848.9683,-35.04,51.06,44.88,19,-120.854,57.227,-168.551,49.17429765,-121.6758945,0
3.074,0.3582,-0.7169,-0.4056,-2.221,-0.4572,-0.4813,-0.4218,-0.0959,0.2088,848.9683,-35.04,51.06,44.88,19,166.743,52.953,-138.556,49.17429765,-121.6758945,0
3.076,0.3582,-0.7169,-0.4056,-2.221,-0.4572,-0.4813,-0.4218,-0.0959,0.2088,848.9683,-34.5,53.46,46.86,19,159.856,52.953,-138.556,49.17429765,-121.6758945,0
3.078,0.3582,-0.7169,-0.4056,-2.221,-0.4572,-0.4813,-0.1981,0.2333,0.2429,848.9683,-34.5,53.46,46.86,19,159.856,52.953,-138.556,49.17429765,-121.6758945,0
3.095,0.3582,-0.7169,-0.4056,0.0107,0.9124,0.5989,-0.1981,0.2333,0.2429,848.9683,-34.5,53.46,46.86,19,159.856,52.953,-138.556,49.17429765,-121.6758945,0
3.134,0.3386,-0.9294,-0.4598,0.0107,0.9124,0.5989,-0.1981,0.2333,0.2429,848.9683,-34.5,53.46,46.86,19,179.988,58.432,-143.634,49.17429765,-121.6758945,0
3.136,0.3386,-0.9294,-0.4598,0.0107,0.9124,0.5989,-0.1981,0.2333,0.2429,848.9683,-33.96,55.8,48.84,19,175.699,58.432,-143.634,49.17429765,-121.6758945,0
3.138,0.3386,-0.9294,-0.4598,0.0107,0.9124,0.5989,0.2216,0.4858,0.3015,848.9683,-33.96,55.8,48.84,19,175.699,58.432,-143.634,49.17429765,-121.6758945,0
3.155,0.3386,-0.9294,-0.4598,-0.0426,-1.0008,-0.1311,0.2216,0.4858,0.3015,848.9683,-33.96,55.8,48.84,19,175.699,58.432,-143.634,49.17429765,-121.6758945,0
3.195,0.4847,-0.6924,-0.5165,-0.0426,-1.0008,-0.1311,0.2216,0.4858,0.3015,848.9683,-33.96,55.8,48.84,19,98.14,44.349,-136.82,49.17429765,-121.6758945,0
3.197,0.4847,-0.6924,-0.5165,-0.0426,-1.0008,-0.1311,0.2216,0.4858,0.3015,848.9683,-33.42,58.14,50.58,19,91.082,44.349,-136.82,49.17429765,-121.6758945,0
3.199,0.4847,-0.6924,-0.5165,-0.0426,-1.0008,-0.1311,-0.1534,-0.1012,0.4155,848.9683,-33.42,58.14,50.58,19,91.082,44.349,-136.82,49.17429765,-121.6758945,0
3.2,0.4847,-0.6924,-0.5165,-0.0426,-1.0008,-0.1311,-0.1534,-0.1012,0.4155,848.9138,-33.42,58.14,50.58,19,91.082,44.349,-136.82,49.17429765,-121.6758945,0
3.202,0.4847,-0.6924,-0.5165,-0.0426,-1.0008,-0.1311,-0.1534,-0.1012,0.4155,848.9138,-33.42,58.14,50.58,11,91.082,44.349,-136.82,49.17429765,-121.6758945,0
3.215,0.4847,-0.6924,-0.5165,1.4245,1.3235,-0.663,-0.1534,-0.1012,0.4155,848.9138,-33.42,58.14,50.58,11,91.082,44.349,-136.82,49.17429765,-121.6758945,0
3.258,0.4398,-0.8077,-0.5287,1.4245,1.3235,-0.663,-0.1534,-0.1012,0.4155,848.9138,-33.42,58.14,50.58,11,140.934,49.589,-140.25,49.17429765,-121.6758945,0
3.266,0.4398,-0.8077,-0.5287,1.4245,1.3235,-0.663,-0.1534,-0.1012,0.4155,848.9138,-32.88,60.42,52.2,11,132.409,49.589,-140.25,49.17429765,-121.6758945,0
3.271,0.4398,-0.8077,-0.5287,1.4245,1.3235,-0.663,0.1065,-0.1236,0.131,848.9138,-32.88,60.42,52.2,11,132.409,49.589,-140.25,49.17429765,-121.6758945,0
3.276,0.4398,-0.8077,-0.5287,1.0016,0.1839,-0.752,0.1065,-0.1236,0.131,848.9138,-32.88,60.42,52.2,11,132.409,49.589,-140.25,49.17429765,-121.6758945,0
3.314,0.4036,-0.9108,-0.3362,1.0016,0.1839,-0.752,0.1065,-0.1236,0.131,848.9138,-32.88,60.42,52.2,11,137.281,60.027,-129.797,49.17429765,-121.6758945,0
3.315,0.4036,-0.9108,-0.3362,1.0016,0.1839,-0.752,0.1065,-0.1236,0.131,848.9138,-32.34,62.58,53.64,11,134.277,60.027,-129.797,49.17429765,-121.6758945,0
3.317,0.4036,-0.9108,-0.3362,1.0016,0.1839,-0.752,0.1683,-0.1289,0.114,848.9138,-32.34,62.58,53.64,11,134.277,60.027,-129.797,49.17429765,-121.6758945,0
3.336,0.4036,-0.9108,-0.3362,0.6658,-0.7587,1.0225,0.1683,-0.1289,0.114,848.9138,-32.34,62.58,53.64,11,134.277,60.027,-129.797,49.17429765,-121.6758945,0
3.376,0.3049,-0.8874,-0.5155,0.6658,-0.7587,1.0225,0.1683,-0.1289,0.114,848.9138,-32.34,62.58,53.64,11,-178.199,55.982,-149.4,49.17429765,-121.6758945,0
3.38,0.3049,-0.8874,-0.5155,0.6658,-0.7587,1.0225,0.1683,-0.1289,0.114,848.9138,-31.68,64.14,54.9,11,177.668,55.982,-149.4,49.17429765,-121.6758945,0
3.396,0.3049,-0.8874,-0.5155,0.6658,-0.7587,1.0225,0.0863,0.179,0.0533,848.9138,-31.68,64.14,54.9,11,177.668,55.982,-149.4,49.17429765,-121.6758945,0
3.409,0.3049,-0.8874,-0.5155,0.6658,-0.7587,1.0225,0.0863,0.179,0.0533,849.0051,-31.68,64.14,54.9,11,177.668,55.982,-149.4,49.17429765,-121.6758945,0
3.415,0.3049,-0.8874,-0.5155,0.6658,-0.7587,1.0225,0.0863,0.179,0.0533,849.0051,-31.68,64.14,54.9,11,177.668,55.982,-149.4,49.17429765,-121.6758945,0
3.421,0.3049,-0.8874,-0.5155,-0.2909,-0.4683,-0.843,0.0863,0.179,0.0533,849.0051,-31.68,64.14,54.9,11,177.668,55.982,-149.4,49.17429765,-121.6758945,0
3.433,-0.0195,-0.9011,-0.4765,-0.2909,-0.4683,-0.843,0.0863,0.179,0.0533,849.0051,-31.68,64.14,54.9,11,-117.079,62.111,177.651,49.17429765,-121.6758945,0
3.435,-0.0195,-0.9011,-0.4765,-0.2909,-0.4683,-0.843,0.0863,0.179,0.0533,849.0051,-30.9,65.34,55.86,11,-118.02,62.111,177.651,49.17429765,-121.6758945,0
3.437,-0.0195,-0.9011,-0.4765,-0.2909,-0.4683,-0.843,-0.0522,0.4463,0.1374,849.0051,-30.9,65.34,55.86,11,-118.02,62.111,177.651,49.17429765,-121.6758945,0
3.453,-0.0195,-0.9011,-0.4765,-3.3727,-0.5409,-0.5058,-0.0522,0.4463,0.1374,849.0051,-30.9,65.34,55.86,11,-118.02,62.111,177.651,49.17429765,-121.6758945,0
3.498,0.3093,-1.0814,-0.1657,-3.3727,-0.5409,-0.5058,-0.0522,0.4463,0.1374,849.0051,-30.9,65.34,55.86,11,131.666,72.023,-118.18,49.17429765,-121.6758945,0
3.504,0.3093,-1.0814,-0.1657,-3.3727,-0.5409,-0.5058,-0.0522,0.4463,0.1374,849.0051,-29.82,65.88,56.58,11,130.048,72.023,-118.18,49.17429765,-121.6758945,0
3.509,0.3093,-1.0814,-0.1657,-3.3727,-0.5409,-0.5058,-0.3931,0.9523,-0.2663,849.0051,-29.82,65.88,56.58,11,130.048,72.023,-118.18,49.17429765,-121.6758945,0
3.525,0.3093,-1.0814,-0.1657,-0.1732,-2.2619,2.4286,-0.3931,0.9523,-0.2663,849.0051,-29.82,65.88,56.58,11,130.048,72.023,-118.18,49.17429765,-121.6758945,0
3.553,0.4055,-0.9113,-0.0802,-0.1732,-2.2619,2.4286,-0.3931,0.9523,-0.2663,849.0051,-29.82,65.88,56.58,11,100.728,65.6,-101.185,49.17429765,-121.6758945,0
3.555,0.4055,-0.9113,-0.0802,-0.1732,-2.2619,2.4286,-0.3931,0.9523,-0.2663,849.0051,-28.74,66.36,57.36,11,99.403,65.6,-101.185,49.17429765,-121.6758945,0
3.557,0.4055,-0.9113,-0.0802,-0.1732,-2.2619,2.4286,-0.4165,0.425,0.2216,849.0051,-28.74,66.36,57.36,11,99.403,65.6,-101.185,49.17429765,-121.6758945,0
3.559,0.4055,-0.9113,-0.0802,-0.1732,-2.2619,2.4286,-0.4165,0.425,0.2216,849.1562,-28.74,66.36,57.36,11,99.403,65.6,-101.185,49.17429765,-121.6758945,0
3.56,0.4055,-0.9113,-0.0802,-0.1732,-2.2619,2.4286,-0.4165,0.425,0.2216,849.1562,-28.74,66.36,57.36,18,99.403,65.6,-101.185,49.17429765,-121.6758945,0
3.572,0.4055,-0.9113,-0.0802,0.631,-0.56,3.0765,-0.4165,0.425,0.2216,849.1562,-28.74,66.36,57.36,18,99.403,65.6,-101.185,49.17429765,-121.6758945,0
3.618,0.4813,-0.947,-0.4217,0.631,-0.56,3.0765,-0.4165,0.425,0.2216,849.1562,-28.74,66.36,57.36,18,116.523,55.952,-131.227,49.17429765,-121.6758945,0
3.626,0.4813,-0.947,-0.4217,0.631,-0.56,3.0765,-0.4165,0.425,0.2216,849.1562,-27.66,66.84,58.14,18,114.391,55.952,-131.227,49.17429765,-121.6758945,0
3.632,0.4813,-0.947,-0.4217,0.631,-0.56,3.0765,-0.2099,0.212,0.1555,849.1562,-27.66,66.84,58.14,18,114.391,55.952,-131.227,49.17429765,-121.6758945,0
3.646,0.4813,-0.947,-0.4217,1.3721,-0.8676,-0.3639,-0.2099,0.212,0.1555,849.1562,-27.66,66.84,58.14,18,114.391,55.952,-131.227,49.17429765,-121.6758945,0
3.673,0.2814,-0.7159,-0.8532,1.3721,-0.8676,-0.3639,-0.2099,0.212,0.1555,849.1562,-27.66,66.84,58.14,18,-32.867,38.549,-161.744,49.17429765,-121.6758945,0
3.677,0.2814,-0.7159,-0.8532,1.3721,-0.8676,-0.3639,-0.2099,0.212,0.1555,849.1562,-26.52,67.38,58.8,18,-28.006,38.549,-161.744,49.17429765,-121.6758945,0
3.68,0.2814,-0.7159,-0.8532,1.3721,-0.8676,-0.3639,0.2983,0.4123,0.4069,849.1562,-26.52,67.38,58.8,18,-28.006,38.549,-161.744,49.17429765,-121.6758945,0
3.697,0.2814,-0.7159,-0.8532,-0.5317,1.3276,-4.3941,0.2983,0.4123,0.4069,849.1562,-26.52,67.38,58.8,18,-28.006,38.549,-161.744,49.17429765,-121.6758945,0
3.738,0.4036,-1.0242,-0.6465,-0.5317,1.3276,-4.3941,0.2983,0.4123,0.4069,849.1562,-26.52,67.38,58.8,18,141.991,53.346,-148.024,49.17429765,-121.6758945,0
3.744,0.4036,-1.0242,-0.6465,-0.5317,1.3276,-4.3941,0.2983,0.4123,0.4069,849.1562,-25.44,67.92,59.46,18,137.27,53.346,-148.024,49.17429765,-121.6758945,0
3.748,0.4036,-1.0242,-0.6465,-0.5317,1.3276,-4.3941,0.4176,0.669,-0.1289,849.1562,-25.44,67.92,59.46,18,137.27,53.346,-148.024,49.17429765,-121.6758945,0
3.752,0.4036,-1.0242,-0.6465,-0.5317,1.3276,-4.3941,0.4176,0.669,-0.1289,849.1541,-25.44,67.92,59.46,18,137.27,53.346,-148.024,49.17429765,-121.6758945,0
3.756,0.4036,-1.0242,-0.6465,-0.5317,1.3276,-4.3941,0.4176,0.669,-0.1289,849.1541,-25.44,67.92,59.46,29,137.27,53.346,-148.024,49.17429765,-121.6758945,0
3.759,0.4036,-1.0242,-0.6465,0.6217,-1.4367,-3.0053,0.4176,0.669,-0.1289,849.1541,-25.44,67.92,59.46,29,137.27,53.346,-148.024,49.17429765,-121.6758945,0
3.793,0.281,-1.4439,-1.2187,0.6217,-1.4367,-3.0053,0.4176,0.669,-0.1289,849.1541,-25.44,67.92,59.46,29,-107.701,49.103,-167.018,49.17429765,-121.6758945,0
3.798,0.281,-1.4439,-1.2187,0.6217,-1.4367,-3.0053,0.4176,0.669,-0.1289,849.1541,-24.3,68.4,59.94,29,-108.888,49.103,-167.018,49.17429765,-121.6758945,0
3.804,0.281,-1.4439,-1.2187,0.6217,-1.4367,-3.0053,-0.4751,0.0192,-0.1683,849.1541,-24.3,68.4,59.94,29,-108.888,49.103,-167.018,49.17429765,-121.6758945,0
3.812,0.281,-1.4439,-1.2187,-0.3133,-5.7218,-7.9774,-0.4751,0.0192,-0.1683,849.1541,-24.3,68.4,59.94,29,-108.888,49.103,-167.018,49.17429765,-121.6758945,0
3.854,0.385,-0.1603,1.0011,-0.3133,-5.7218,-7.9774,-0.4751,0.0192,-0.1683,849.1541,-24.3,68.4,59.94,29,30.635,8.501,-21.037,49.17429765,-121.6758945,0
3.857,0.385,-0.1603,1.0011,-0.3133,-5.7218,-7.9774,-0.4751,0.0192,-0.1683,849.1541,-23.28,68.94,60.36,29,29.963,8.501,-21.037,49.17429765,-121.6758945,0
3.861,0.385,-0.1603,1.0011,-0.3133,-5.7218,-7.9774,0.0852,0.375,0.1204,849.1541,-23.28,68.94,60.36,29,29.963,8.501,-21.037,49.17429765,-121.6758945,0
3.874,0.385,-0.1603,1.0011,1.0016,6.7655,14.1683,0.0852,0.375,0.1204,849.1541,-23.28,68.94,60.36,29,29.963,8.501,-21.037,49.17429765,-121.6758945,0
3.92,-0.0733,-0.7413,0.4651,1.0016,6.7655,14.1683,0.0852,0.375,0.1204,849.1541,-23.28,68.94,60.36,29,8.56,57.578,8.955,49.17429765,-121.6758945,0
3.926,-0.0733,-0.7413,0.4651,1.0016,6.7655,14.1683,0.0852,0.375,0.1204,849.1541,-22.38,69.48,60.72,29,7.933,57.578,8.955,49.17429765,-121.6758945,0
3.938,-0.0733,-0.7413,0.4651,1.0016,6.7655,14.1683,1.0131,0.3441,-0.065,849.1541,-22.38,69.48,60.72,29,7.933,57.578,8.955,49.17429765,-121.6758945,0
3.948,-0.0733,-0.7413,0.4651,1.0016,6.7655,14.1683,1.0131,0.3441,-0.065,849.1135,-22.38,69.48,60.72,29,7.933,57.578,8.955,49.17429765,-121.6758945,0
3.951,-0.0733,-0.7413,0.4651,1.0016,6.7655,14.1683,1.0131,0.3441,-0.065,849.1135,-22.38,69.48,60.72,21,7.933,57.578,8.955,49.17429765,-121.6758945,0
3.956,-0.0733,-0.7413,0.4651,-3.6517,0.8508,9.2168,1.0131,0.3441,-0.065,849.1135,-22.38,69.48,60.72,21,7.933,57.578,8.955,49.17429765,-121.6758945,0
3.972,1.1126,-0.8972,-1.0677,-3.6517,0.8508,9.2168,1.0131,0.3441,-0.065,849.1135,-22.38,69.48,60.72,21,42.6,30.191,-133.82,49.17429765,-121.6758945,0
3.974,1.1126,-0.8972,-1.0677,-3.6517,0.8508,9.2168,1.0131,0.3441,-0.065,849.1135,-21.66,69.96,61.02,21,42.787,30.191,-133.82,49.17429765,-121.6758945,0
3.976,1.1126,-0.8972,-1.0677,-3.6517,0.8508,9.2168,0.9119,-0.0991,-0.4623,849.1135,-21.66,69.96,61.02,21,42.787,30.191,-133.82,49.17429765,-121.6758945,0
3.991,1.1126,-0.8972,-1.0677,8.1292,-0.0846,-6.906,0.9119,-0.0991,-0.4623,849.1135,-21.66,69.96,61.02,21,42.787,30.191,-133.82,49.17429765,-121.6758945,0
4.031,0.5086,-0.9851,0.4724,8.1292,-0.0846,-6.906,0.9119,-0.0991,-0.4623,849.1135,-21.66,69.96,61.02,21,44.136,54.828,-47.114,49.17429765,-121.6758945,0
4.032,0.5086,-0.9851,0.4724,8.1292,-0.0846,-6.906,0.9119,-0.0991,-0.4623,849.1135,-21.06,70.38,61.14,21,43.671,54.828,-47.114,49.17429765,-121.6758945,0
4.034,0.5086,-0.9851,0.4724,8.1292,-0.0846,-6.906,-0.326,-0.1917,0.0756,849.1135,-21.06,70.38,61.14,21,43.671,54.828,-47.114,49.17429765,-121.6758945,0
4.051,0.5086,-0.9851,0.4724,2.2502,-0.7931,7.8197,-0.326,-0.1917,0.0756,849.1135,-21.06,70.38,61.14,21,43.671,54.828,-47.114,49.17429765,-121.6758945,0
4.092,0.0288,-1.377,-0.6831,2.2502,-0.7931,7.8197,-0.326,-0.1917,0.0756,849.1135,-21.06,70.38,61.14,21,-142.664,63.593,-177.584,49.17429765,-121.6758945,0
4.095,0.0288,-1.377,-0.6831,2.2502,-0.7931,7.8197,-0.326,-0.1917,0.0756,849.1135,-20.64,70.74,61.2,21,-143.162,63.593,-177.584,49.17429765,-121.6758945,0
4.1,0.0288,-1.377,-0.6831,2.2502,-0.7931,7.8197,-0.5763,-0.1204,0.3057,849.1135,-20.64,70.74,61.2,21,-143.162,63.593,-177.584,49.17429765,-121.6758945,0
4.106,0.0288,-1.377,-0.6831,2.2502,-0.7931,7.8197,-0.5763,-0.1204,0.3057,849.1572,-20.64,70.74,61.2,21,-143.162,63.593,-177.584,49.17429765,-121.6758945,0
4.112,0.0288,-1.377,-0.6831,2.2502,-0.7931,7.8197,-0.5763,-0.1204,0.3057,849.1572,-20.64,70.74,61.2,5,-143.162,63.593,-177.584,49.17429765,-121.6758945,0
4.116,0.0288,-1.377,-0.6831,-2.2121,-4.8848,-2.717,-0.5763,-0.1204,0.3057,849.1572,-20.64,70.74,61.2,5,-143.162,63.593,-177.584,49.17429765,-121.6758945,0
4.151,0.0484,-0.7691,0.1162,-2.2121,-4.8848,-2.717,-0.5763,-0.1204,0.3057,849.1572,-20.64,70.74,61.2,5,35.647,80.704,-22.596,49.17429765,-121.6758945,0
4.153,0.0484,-0.7691,0.1162,-2.2121,-4.8848,-2.717,-0.5763,-0.1204,0.3057,849.1572,-20.4,71.16,61.14,5,35.443,80.704,-22.596,49.17429765,-121.6758945,0
4.155,0.0484,-0.7691,0.1162,-2.2121,-4.8848,-2.717,-0.5103,0.3089,-0.1044,849.1572,-20.4,71.16,61.14,5,35.443,80.704,-22.596,49.17429765,-121.6758945,0
4.171,0.0484,-0.7691,0.1162,-1.759,1.0412,5.3329,-0.5103,0.3089,-0.1044,849.1572,-20.4,71.16,61.14,5,35.443,80.704,-22.596,49.17429765,-121.6758945,0
4.212,0.3293,-0.8116,-0.3782,-1.759,1.0412,5.3329,-0.5103,0.3089,-0.1044,849.1572,-20.4,71.16,61.14,5,118.092,58.288,-138.955,49.17429765,-121.6758945,0
4.215,0.3293,-0.8116,-0.3782,-1.759,1.0412,5.3329,-0.5103,0.3089,-0.1044,849.1572,-20.4,71.58,60.96,5,117.595,58.288,-138.955,49.17429765,-121.6758945,0
4.217,0.3293,-0.8116,-0.3782,-1.759,1.0412,5.3329,-1.289,0.6914,-0.0224,849.1572,-20.4,71.58,60.96,5,117.595,58.288,-138.955,49.17429765,-121.6758945,0
4.232,0.3293,-0.8116,-0.3782,0.9937,0.3567,0.9954,-1.289,0.6914,-0.0224,849.1572,-20.4,71.58,60.96,5,117.595,58.288,-138.955,49.17429765,-121.6758945,0
4.275,0.363,-0.5019,-0.5209,0.9937,0.3567,0.9954,-1.289,0.6914,-0.0224,849.1572,-20.4,71.58,60.96,5,45.329,38.323,-145.127,49.17429765,-121.6758945,0
4.281,0.363,-0.5019,-0.5209,0.9937,0.3567,0.9954,-1.289,0.6914,-0.0224,849.1572,-20.46,71.94,60.72,5,44.427,38.323,-145.127,49.17429765,-121.6758945,0
4.288,0.363,-0.5019,-0.5209,0.9937,0.3567,0.9954,-0.784,0.5188,0.2993,849.1572,-20.46,71.94,60.72,5,44.427,38.323,-145.127,49.17429765,-121.6758945,0
4.297,0.363,-0.5019,-0.5209,0.9937,0.3567,0.9954,-0.784,0.5188,0.2993,849.0488,-20.46,71.94,60.72,5,44.427,38.323,-145.127,49.17429765,-121.6758945,0
4.299,0.363,-0.5019,-0.5209,0.9937,0.3567,0.9954,-0.784,0.5188,0.2993,849.0488,-20.46,71.94,60.72,5,44.427,38.323,-145.127,49.17429765,-121.6758945,0
4.301,0.363,-0.5019,-0.5209,1.0948,3.0112,0.1129,-0.784,0.5188,0.2993,849.0488,-20.46,71.94,60.72,5,44.427,38.323,-145.127,49.17429765,-121.6758945,0
4.331,0.2389,-0.6015,-0.433,1.0948,3.0112,0.1129,-0.784,0.5188,0.2993,849.0488,-20.46,71.94,60.72,5,104.798,50.577,-151.108,49.17429765,-121.6758945,0
4.333,0.2389,-0.6015,-0.433,1.0948,3.0112,0.1129,-0.784,0.5188,0.2993,849.0488,-20.58,72.36,60.48,5,103.229,50.577,-151.108,49.17429765,-121.6758945,0
4.335,0.2389,-0.6015,-0.433,1.0948,3.0112,0.1129,-0.0032,0.7755,-0.3324,849.0488,-20.58,72.36,60.48,5,103.229,50.577,-151.108,49.17429765,-121.6758945,0
4.352,0.2389,-0.6015,-0.433,-0.2892,1.8661,1.1432,-0.0032,0.7755,-0.3324,849.0488,-20.58,72.36,60.48,5,103.229,50.577,-151.108,49.17429765,-121.6758945,0
4.392,0.3674,-0.9143,-0.4159,-0.2892,1.8661,1.1432,-0.0032,0.7755,-0.3324,849.0488,-20.58,72.36,60.48,5,117.554,58.743,-138.538,49.17429765,-121.6758945,0
4.4,0.3674,-0.9143,-0.4159,-0.2892,1.8661,1.1432,-0.0032,0.7755,-0.3324,849.0488,-20.76,72.66,60.24,5,117.453,58.743,-138.538,49.17429765,-121.6758945,0
4.409,0.3674,-0.9143,-0.4159,-0.2892,1.8661,1.1432,-0.2376,1.5308,-0.767,849.0488,-20.76,72.66,60.24,5,117.453,58.743,-138.538,49.17429765,-121.6758945,0
4.419,0.3674,-0.9143,-0.4159,0.3345,-1.3682,1.2037,-0.2376,1.5308,-0.767,849.0488,-20.76,72.66,60.24,5,117.453,58.743,-138.538,49.17429765,-121.6758945,0
4.451,0.4573,-1.2123,-0.3113,0.3345,-1.3682,1.2037,-0.2376,1.5308,-0.767,849.0488,-20.76,72.66,60.24,5,113.134,65.47,-124.243,49.17429765,-121.6758945,0
4.453,0.4573,-1.2123,-0.3113,0.3345,-1.3682,1.2037,-0.2376,1.5308,-0.767,849.0488,-21.06,72.6,60.84,5,113.658,65.47,-124.243,49.17429765,-121.6758945,0
4.455,0.4573,-1.2123,-0.3113,0.3345,-1.3682,1.2037,-1.0631,1.8216,0.1278,849.0488,-21.06,72.6,60.84,5,113.658,65.47,-124.243,49.17429765,-121.6758945,0
4.457,0.4573,-1.2123,-0.3113,0.3345,-1.3682,1.2037,-1.0631,1.8216,0.1278,848.9905,-21.06,72.6,60.84,5,113.658,65.47,-124.243,49.17429765,-121.6758945,0
4.458,0.4573,-1.2123,-0.3113,0.3345,-1.3682,1.2037,-1.0631,1.8216,0.1278,848.9905,-21.06,72.6,60.84,5,113.658,65.47,-124.243,49.17429765,-121.6758945,0
4.47,0.4573,-1.2123,-0.3113,0.5262,-4.5847,2.1733,-1.0631,1.8216,0.1278,848.9905,-21.06,72.6,60.84,5,113.658,65.47,-124.243,49.17429765,-121.6758945,0
4.511,0.3132,-0.627,-0.3611,0.5262,-4.5847,2.1733,-1.0631,1.8216,0.1278,848.9905,-21.06,72.6,60.84,5,98.321,52.675,-139.067,49.17429765,-121.6758945,0
4.514,0.3132,-0.627,-0.3611,0.5262,-4.5847,2.1733,-1.0631,1.8216,0.1278,848.9905,-21.24,71.94,61.98,5,100.792,52.675,-139.067,49.17429765,-121.6758945,0
4.516,0.3132,-0.627,-0.3611,0.5262,-4.5847,2.1733,-0.8863,1.7673,0.4037,848.9905,-21.24,71.94,61.98,5,100.792,52.675,-139.067,49.17429765,-121.6758945,0
4.531,0.3132,-0.627,-0.3611,-1.2562,0.9538,1.6645,-0.8863,1.7673,0.4037,848.9905,-21.24,71.94,61.98,5,100.792,52.675,-139.067,49.17429765,-121.6758945,0
4.572,0.4329,-0.6548,-0.2488,-1.2562,0.9538,1.6645,-0.8863,1.7673,0.4037,848.9905,-21.24,71.94,61.98,5,84.152,52.674,-119.883,49.17429765,-121.6758945,0
4.575,0.4329,-0.6548,-0.2488,-1.2562,0.9538,1.6645,-0.8863,1.7673,0.4037,848.9905,-21.54,71.22,63,5,85.606,52.674,-119.883,49.17429765,-121.6758945,0
4.578,0.4329,-0.6548,-0.2488,-1.2562,0.9538,1.6645,-0.4783,2.203,0.2653,848.9905,-21.54,71.22,63,5,85.606,52.674,-119.883,49.17429765,-121.6758945,0
4.591,0.4329,-0.6548,-0.2488,-0.5453,0.5872,2.4802,-0.4783,2.203,0.2653,848.9905,-21.54,71.22,63,5,85.606,52.674,-119.883,49.17429765,-121.6758945,0
4.632,0.6518,-0.7901,-0.2155,-0.5453,0.5872,2.4802,-0.4783,2.203,0.2653,848.9905,-21.54,71.22,63,5,72.879,49.014,-108.298,49.17429765,-121.6758945,0
4.634,0.6518,-0.7901,-0.2155,-0.5453,0.5872,2.4802,-0.4783,2.203,0.2653,848.9905,-21.84,70.5,64.08,5,74.079,49.014,-108.298,49.17429765,-121.6758945,0
4.637,0.6518,-0.7901,-0.2155,-0.5453,0.5872,2.4802,-0.4634,2.2946,0.1619,848.9905,-21.84,70.5,64.08,5,74.079,49.014,-108.298,49.17429765,-121.6758945,0
4.639,0.6518,-0.7901,-0.2155,-0.5453,0.5872,2.4802,-0.4634,2.2946,0.1619,849.1514,-21.84,70.5,64.08,5,74.079,49.014,-108.298,49.17429765,-121.6758945,0
4.644,0.6518,-0.7901,-0.2155,-0.5453,0.5872,2.4802,-0.4634,2.2946,0.1619,849.1514,-21.84,70.5,64.08,5,74.079,49.014,-108.298,49.17429765,-121.6758945,0
4.652,0.6518,-0.7901,-0.2155,1.0158,-0.7955,2.2511,-0.4634,2.2946,0.1619,849.1514,-21.84,70.5,64.08,5,74.079,49.014,-108.298,49.17429765,-121.6758945,0
4.69,0.8111,-0.689,-0.0616,1.0158,-0.7955,2.2511,-0.4634,2.2946,0.1619,849.1514,-21.84,70.5,64.08,5,59.555,40.266,-94.345,49.17429765,-121.6758945,0
4.692,0.8111,-0.689,-0.0616,1.0158,-0.7955,2.2511,-0.4634,2.2946,0.1619,849.1514,-22.2,69.72,64.74,5,60.396,40.266,-94.345,49.17429765,-121.6758945,0
4.694,0.8111,-0.689,-0.0616,1.0158,-0.7955,2.2511,-0.7883,1.9718,0.3121,849.1514,-22.2,69.72,64.74,5,60.396,40.266,-94.345,49.17429765,-121.6758945,0
4.71,0.8111,-0.689,-0.0616,2.0911,0.1184,3.224,-0.7883,1.9718,0.3121,849.1514,-22.2,69.72,64.74,5,60.396,40.266,-94.345,49.17429765,-121.6758945,0
4.753,0.9142,-0.7266,-0.0665,2.0911,0.1184,3.224,-0.7883,1.9718,0.3121,849.1514,-22.2,69.72,64.74,5,58.911,38.405,-94.161,49.17429765,-121.6758945,0
4.756,0.9142,-0.7266,-0.0665,2.0911,0.1184,3.224,-0.7883,1.9718,0.3121,849.1514,-22.5,69,65.22,5,59.61,38.405,-94.161,49.17429765,-121.6758945,0
4.76,0.9142,-0.7266,-0.0665,2.0911,0.1184,3.224,-0.5507,1.3273,0.457,849.1514,-22.5,69,65.22,5,59.61,38.405,-94.161,49.17429765,-121.6758945,0
4.771,0.9142,-0.7266,-0.0665,2.7793,-0.2773,2.6866,-0.5507,1.3273,0.457,849.1514,-22.5,69,65.22,5,59.61,38.405,-94.161,49.17429765,-121.6758945,0
4.812,0.6025,-0.6968,-0.2996,2.7793,-0.2773,2.6866,-0.5507,1.3273,0.457,849.1514,-22.5,69,65.22,5,75.463,46.003,-116.439,49.17429765,-121.6758945,0
4.814,0.6025,-0.6968,-0.2996,2.7793,-0.2773,2.6866,-0.5507,1.3273,0.457,849.1514,-22.8,68.16,65.64,5,76.544,46.003,-116.439,49.17429765,-121.6758945,0
4.817,0.6025,-0.6968,-0.2996,2.7793,-0.2773,2.6866,0.2035,0.6317,0.6477,849.1514,-22.8,68.16,65.64,5,76.544,46.003,-116.439,49.17429765,-121.6758945,0
4.82,0.6025,-0.6968,-0.2996,2.7793,-0.2773,2.6866,0.2035,0.6317,0.6477,849.2234,-22.8,68.16,65.64,5,76.544,46.003,-116.439,49.17429765,-121.6758945,0
4.823,0.6025,-0.6968,-0.2996,2.7793,-0.2773,2.6866,0.2035,0.6317,0.6477,849.2234,-22.8,68.16,65.64,5,76.544,46.003,-116.439,49.17429765,-121.6758945,0
4.832,0.6025,-0.6968,-0.2996,-0.1966,0.1754,0.2091,0.2035,0.6317,0.6477,849.2234,-22.8,68.16,65.64,5,76.544,46.003,-116.439,49.17429765,-121.6758945,0
4.869,0.6723,-0.9001,-0.2786,-0.1966,0.1754,0.2091,0.2035,0.6317,0.6477,849.2234,-22.8,68.16,65.64,5,82.389,51.043,-112.506,49.17429765,-121.6758945,0
4.871,0.6723,-0.9001,-0.2786,-0.1966,0.1754,0.2091,0.2035,0.6317,0.6477,849.2234,-23.04,67.26,66,5,83.338,51.043,-112.506,49.17429765,-121.6758945,0
4.873,0.6723,-0.9001,-0.2786,-0.1966,0.1754,0.2091,-0.0298,0.9907,0.5135,849.2234,-23.04,67.26,66,5,83.338,51.043,-112.506,49.17429765,-121.6758945,0
4.889,0.6723,-0.9001,-0.2786,0.628,-1.5424,0.0381,-0.0298,0.9907,0.5135,849.2234,-23.04,67.26,66,5,83.338,51.043,-112.506,49.17429765,-121.6758945,0
4.937,0.599,-0.7618,-0.2019,0.628,-1.5424,0.0381,-0.0298,0.9907,0.5135,849.2234,-23.04,67.26,66,5,79.801,50.315,-108.622,49.17429765,-121.6758945,0
4.965,0.599,-0.7618,-0.2019,0.628,-1.5424,0.0381,-0.0298,0.9907,0.5135,849.2234,-23.16,66.36,66.36,5,80.608,50.315,-108.622,49.17429765,-121.6758945,0
4.966,0.599,-0.7618,-0.2019,0.628,-1.5424,0.0381,-0.7222,1.0642,0.4772,849.2234,-23.16,66.36,66.36,5,80.608,50.315,-108.622,49.17429765,-121.6758945,0
4.979,0.599,-0.7618,-0.2019,-0.0623,-0.0759,0.5438,-0.7222,1.0642,0.4772,849.2234,-23.16,66.36,66.36,5,80.608,50.315,-108.622,49.17429765,-121.6758945,0
4.989,0.5912,-0.668,-0.1496,-0.0623,-0.0759,0.5438,-0.7222,1.0642,0.4772,849.2234,-23.16,66.36,66.36,5,74.614,47.605,-104.198,49.17433114,-121.6777951,1.22000003
4.99,0.5912,-0.668,-0.1496,-0.0623,-0.0759,0.5438,-0.7222,1.0642,0.4772,849.2234,-23.22,65.4,66.54,5,75.311,47.605,-104.198,49.17433114,-121.6777951,1.22000003
4.997,0.5912,-0.668,-0.1496,-0.0623,-0.0759,0.5438,-0.4623,0.8661,0.6029,849.2234,-23.22,65.4,66.54,5,75.311,47.605,-104.198,49.17433114,-121.6777951,1.22000003
4.998,0.5912,-0.668,-0.1496,-0.0623,-0.0759,0.5438,-0.4623,0.8661,0.6029,849.1929,-23.22,65.4,66.54,5,75.311,47.605,-104.198,49.17433114,-121.6777951,1.22000003
4.999,0.5912,-0.668,-0.1496,-0.0623,-0.0759,0.5438,-0.4623,0.8661,0.6029,849.1929,-23.22,65.4,66.54,5,75.311,47.605,-104.198,49.17433114,-121.6777951,1.22000003
5.008,0.5912,-0.668,-0.1496,-0.0755,0.931,0.9441,-0.4623,0.8661,0.6029,849.1929,-23.22,65.4,66.54,5,75.311,47.605,-104.198,49.17433114,-121.6777951,1.22000003
5.051,0.6005,-0.7691,-0.1598,-0.0755,0.931,0.9441,-0.4623,0.8661,0.6029,849.1929,-23.22,65.4,66.54,5,79.953,51.064,-104.905,49.17433114,-121.6777951,1.22000003
5.056,0.6005,-0.7691,-0.1598,-0.0755,0.931,0.9441,-0.4623,0.8661,0.6029,849.1929,-23.22,64.5,66.78,5,80.576,51.064,-104.905,49.17433114,-121.6777951,1.22000003
5.06,0.6005,-0.7691,-0.1598,-0.0755,0.931,0.9441,-0.1609,0.7201,0.4197,849.1929,-23.22,64.5,66.78,5,80.576,51.064,-104.905,49.17433114,-121.6777951,1.22000003
5.07,0.6005,-0.7691,-0.1598,0.1089,0.0737,0.6417,-0.1609,0.7201,0.4197,849.1929,-23.22,64.5,66.78,5,80.576,51.064,-104.905,49.17433114,-121.6777951,1.22000003
5.109,0.6821,-0.8356,-0.0533,0.1089,0.0737,0.6417,-0.1609,0.7201,0.4197,849.1929,-23.22,64.5,66.78,5,73.712,50.689,-94.47,49.17433114,-121.6777951,1.22000003
5.11,0.6821,-0.8356,-0.0533,0.1089,0.0737,0.6417,-0.1609,0.7201,0.4197,849.1929,-23.04,63.66,66.96,5,74.087,50.689,-94.47,49.17433114,-121.6777951,1.22000003
5.111,0.6821,-0.8356,-0.0533,0.1089,0.0737,0.6417,-0.1129,0.6754,0.4186,849.1929,-23.04,63.66,66.96,5,74.087,50.689,-94.47,49.17433114,-121.6777951,1.22000003
5.128,0.6821,-0.8356,-0.0533,0.9573,-0.4823,1.4718,-0.1129,0.6754,0.4186,849.1929,-23.04,63.66,66.96,5,74.087,50.689,-94.47,49.17433114,-121.6777951,1.22000003
5.177,0.5712,-0.7945,-0.1476,0.9573,-0.4823,1.4718,-0.1129,0.6754,0.4186,849.1929,-23.04,63.66,66.96,5,83.635,53.406,-104.491,49.17433114,-121.6777951,1.22000003
5.186,0.5712,-0.7945,-0.1476,0.9573,-0.4823,1.4718,-0.1129,0.6754,0.4186,849.1929,-22.68,62.82,67.2,5,83.926,53.406,-104.491,49.17433114,-121.6777951,1.22000003
5.193,0.5712,-0.7945,-0.1476,0.9573,-0.4823,1.4718,0.0874,0.6828,0.424,849.1929,-22.68,62.82,67.2,5,83.926,53.406,-104.491,49.17433114,-121.6777951,1.22000003
5.198,0.5712,-0.7945,-0.1476,0.9573,-0.4823,1.4718,0.0874,0.6828,0.424,849.0129,-22.68,62.82,67.2,5,83.926,53.406,-104.491,49.17433114,-121.6777951,1.22000003
5.2,0.5712,-0.7945,-0.1476,0.9573,-0.4823,1.4718,0.0874,0.6828,0.424,849.0129,-22.68,62.82,67.2,5,83.926,53.406,-104.491,49.17433114,-121.6777951,1.22000003
5.202,0.5712,-0.7945,-0.1476,-0.0307,0.0652,0.2389,0.0874,0.6828,0.424,849.0129,-22.68,62.82,67.2,5,83.926,53.406,-104.491,49.17433114,-121.6777951,1.22000003
5.229,0.6054,-0.7774,-0.2102,-0.0307,0.0652,0.2389,0.0874,0.6828,0.424,849.0129,-22.68,62.82,67.2,5,83.467,50.502,-109.145,49.17433114,-121.6777951,1.22000003
5.23,0.6054,-0.7774,-0.2102,-0.0307,0.0652,0.2389,0.0874,0.6828,0.424,849.0129,-22.08,61.98,67.38,5,83.652,50.502,-109.145,49.17433114,-121.6777951,1.22000003
5.232,0.6054,-0.7774,-0.2102,-0.0307,0.0652,0.2389,-0.2589,0.7137,0.2951,849.0129,-22.08,61.98,67.38,5,83.652,50.502,-109.145,49.17433114,-121.6777951,1.22000003
5.248,0.6054,-0.7774,-0.2102,0.3878,0.3304,-0.5664,-0.2589,0.7137,0.2951,849.0129,-22.08,61.98,67.38,5,83.652,50.502,-109.145,49.17433114,-121.6777951,1.22000003
5.289,0.6772,-0.6587,-0.1422,0.3878,0.3304,-0.5664,-0.2589,0.7137,0.2951,849.0129,-22.08,61.98,67.38,5,71.584,43.588,-101.862,49.17433114,-121.6777951,1.22000003
5.29,0.6772,-0.6587,-0.1422,0.3878,0.3304,-0.5664,-0.2589,0.7137,0.2951,849.0129,-21.36,61.26,67.5,5,71.702,43.588,-101.862,49.17433114,-121.6777951,1.22000003
5.292,0.6772,-0.6587,-0.1422,0.3878,0.3304,-0.5664,-0.376,0.7084,0.3515,849.0129,-21.36,61.26,67.5,5,71.702,43.588,-101.862,49.17433114,-121.6777951,1.22000003
5.311,0.6772,-0.6587,-0.1422,1.0842,1.5005,0.0352,-0.376,0.7084,0.3515,849.0129,-21.36,61.26,67.5,5,71.702,43.588,-101.862,49.17433114,-121.6777951,1.22000003
5.351,0.7178,-0.6768,-0.1242,1.0842,1.5005,0.0352,-0.376,0.7084,0.3515,849.0129,-21.36,61.26,67.5,5,70.13,42.895,-99.815,49.17433114,-121.6777951,1.22000003
5.355,0.7178,-0.6768,-0.1242,1.0842,1.5005,0.0352,-0.376,0.7084,0.3515,849.0129,-20.52,60.6,67.5,5,70.108,42.895,-99.815,49.17433114,-121.6777951,1.22000003
5.359,0.7178,-0.6768,-0.1242,1.0842,1.5005,0.0352,-0.0479,0.3728,0.1768,849.0129,-20.52,60.6,67.5,5,70.108,42.895,-99.815,49.17433114,-121.6777951,1.22000003
5.369,0.7178,-0.6768,-0.1242,1.0842,1.5005,0.0352,-0.0479,0.3728,0.1768,849.1829,-20.52,60.6,67.5,5,70.108,42.895,-99.815,49.17433114,-121.6777951,1.22000003
5.374,0.7178,-0.6768,-0.1242,1.0842,1.5005,0.0352,-0.0479,0.3728,0.1768,849.1829,-20.52,60.6,67.5,5,70.108,42.895,-99.815,49.17433114,-121.6777951,1.22000003
5.378,0.7178,-0.6768,-0.1242,1.4636,1.3213,0.1522,-0.0479,0.3728,0.1768,849.1829,-20.52,60.6,67.5,5,70.108,42.895,-99.815,49.17433114,-121.6777951,1.22000003
5.411,0.8077,-0.8708,0.0415,1.4636,1.3213,0.1522,-0.0479,0.3728,0.1768,849.1829,-20.52,60.6,67.5,5,67.213,47.115,-87.061,49.17433114,-121.6777951,1.22000003
5.416,0.8077,-0.8708,0.0415,1.4636,1.3213,0.1522,-0.0479,0.3728,0.1768,849.1829,-19.56,60.36,66.6,5,66.565,47.115,-87.061,49.17433114,-121.6777951,1.22000003
5.42,0.8077,-0.8708,0.0415,1.4636,1.3213,0.1522,0.3537,-0.3302,0.0586,849.1829,-19.56,60.36,66.6,5,66.565,47.115,-87.061,49.17433114,-121.6777951,1.22000003
5.437,0.8077,-0.8708,0.0415,2.2443,-0.6309,1.6549,0.3537,-0.3302,0.0586,849.1829,-19.56,60.36,66.6,5,66.565,47.115,-87.061,49.17433114,-121.6777951,1.22000003
5.471,0.5907,-0.9563,0.0864,2.2443,-0.6309,1.6549,0.3537,-0.3302,0.0586,849.1829,-19.56,60.36,66.6,5,70.955,58.023,-81.677,49.17433114,-121.6777951,1.22000003
5.477,0.5907,-0.9563,0.0864,2.2443,-0.6309,1.6549,0.3537,-0.3302,0.0586,849.1829,-18.6,60.66,64.98,5,69.917,58.023,-81.677,49.17433114,-121.6777951,1.22000003
5.481,0.5907,-0.9563,0.0864,2.2443,-0.6309,1.6549,0.5529,-0.7585,-0.1119,849.1829,-18.6,60.66,64.98,5,69.917,58.023,-81.677,49.17433114,-121.6777951,1.22000003
5.495,0.5907,-0.9563,0.0864,0.1134,-1.4444,1.9034,0.5529,-0.7585,-0.1119,849.1829,-18.6,60.66,64.98,5,69.917,58.023,-81.677,49.17433114,-121.6777951,1.22000003
5.528,0.2932,-0.8986,0.1255,0.1134,-1.4444,1.9034,0.5529,-0.7585,-0.1119,849.1829,-18.6,60.66,64.98,5,67.137,70.461,-66.823,49.17433114,-121.6777951,1.22000003
5.53,0.2932,-0.8986,0.1255,0.1134,-1.4444,1.9034,0.5529,-0.7585,-0.1119,849.1829,-17.7,61.02,63.42,5,66.34,70.461,-66.823,49.17433114,-121.6777951,1.22000003
5.532,0.2932,-0.8986,0.1255,0.1134,-1.4444,1.9034,0.474,-0.9609,-0.1609,849.1829,-17.7,61.02,63.42,5,66.34,70.461,-66.823,49.17433114,-121.6777951,1.22000003
5.534,0.2932,-0.8986,0.1255,0.1134,-1.4444,1.9034,0.474,-0.9609,-0.1609,849.1091,-17.7,61.02,63.42,5,66.34,70.461,-66.823,49.17433114,-121.6777951,1.22000003
5.535,0.2932,-0.8986,0.1255,0.1134,-1.4444,1.9034,0.474,-0.9609,-0.1609,849.1091,-17.7,61.02,63.42,2,66.34,70.461,-66.823,49.17433114,-121.6777951,1.22000003
5.548,0.2932,-0.8986,0.1255,-2.707,-0.7973,2.1712,0.474,-0.9609,-0.1609,849.1091,-17.7,61.02,63.42,2,66.34,70.461,-66.823,49.17433114,-121.6777951,1.22000003
5.589,0.3269,-0.884,0.0195,-2.707,-0.7973,2.1712,0.474,-0.9609,-0.1609,849.1091,-17.7,61.02,63.42,2,82.768,69.673,-86.589,49.17433114,-121.6777951,1.22000003
5.593,0.3269,-0.884,0.0195,-2.707,-0.7973,2.1712,0.474,-0.9609,-0.1609,849.1091,-16.74,61.26,61.92,2,81.787,69.673,-86.589,49.17433114,-121.6777951,1.22000003
5.596,0.3269,-0.884,0.0195,-2.707,-0.7973,2.1712,0.5731,-0.7862,0.0149,849.1091,-16.74,61.26,61.92,2,81.787,69.673,-86.589,49.17433114,-121.6777951,1.22000003
5.609,0.3269,-0.884,0.0195,-2.2355,-0.5506,1.0736,0.5731,-0.7862,0.0149,849.1091,-16.74,61.26,61.92,2,81.787,69.673,-86.589,49.17433114,-121.6777951,1.22000003
5.65,0.3381,-1.0481,-0.0719,-2.2355,-0.5506,1.0736,0.5731,-0.7862,0.0149,849.1091,-16.74,61.26,61.92,2,98.559,71.747,-102.003,49.17433114,-121.6777951,1.22000003
5.654,0.3381,-1.0481,-0.0719,-2.2355,-0.5506,1.0736,0.5731,-0.7862,0.0149,849.1091,-15.78,61.5,60.72,2,97.501,71.747,-102.003,49.17433114,-121.6777951,1.22000003
5.658,0.3381,-1.0481,-0.0719,-2.2355,-0.5506,1.0736,0.2546,-0.3249,-0.1896,849.1091,-15.78,61.5,60.72,2,97.501,71.747,-102.003,49.17433114,-121.6777951,1.22000003
5.671,0.3381,-1.0481,-0.0719,-1.9515,-2.0413,0.1379,0.2546,-0.3249,-0.1896,849.1091,-15.78,61.5,60.72,2,97.501,71.747,-102.003,49.17433114,-121.6777951,1.22000003
5.71,0.3425,-1.1322,0.0556,-1.9515,-2.0413,0.1379,0.2546,-0.3249,-0.1896,849.1091,-15.78,61.5,60.72,2,78.738,72.96,-80.773,49.17433114,-121.6777951,1.22000003
5.713,0.3425,-1.1322,0.0556,-1.9515,-2.0413,0.1379,0.2546,-0.3249,-0.1896,849.1091,-14.94,61.74,59.88,2,77.91,72.96,-80.773,49.17433114,-121.6777951,1.22000003
5.717,0.3425,-1.1322,0.0556,-1.9515,-2.0413,0.1379,-0.3079,0.1001,-0.326,849.1091,-14.94,61.74,59.88,2,77.91,72.96,-80.773,49.17433114,-121.6777951,1.22000003
5.719,0.3425,-1.1322,0.0556,-1.9515,-2.0413,0.1379,-0.3079,0.1001,-0.326,849.1531,-14.94,61.74,59.88,2,77.91,72.96,-80.773,49.17433114,-121.6777951,1.22000003
5.723,0.3425,-1.1322,0.0556,-1.9515,-2.0413,0.1379,-0.3079,0.1001,-0.326,849.1531,-14.94,61.74,59.88,3,77.91,72.96,-80.773,49.17433114,-121.6777951,1.22000003
5.735,0.3425,-1.1322,0.0556,-1.8645,-2.8305,1.3211,-0.3079,0.1001,-0.326,849.1531,-14.94,61.74,59.88,3,77.91,72.96,-80.773,49.17433114,-121.6777951,1.22000003
5.767,0.3689,-0.9485,0.0229,-1.8645,-2.8305,1.3211,-0.3079,0.1001,-0.326,849.1531,-14.94,61.74,59.88,3,78.832,68.709,-86.447,49.17433114,-121.6777951,1.22000003
5.769,0.3689,-0.9485,0.0229,-1.8645,-2.8305,1.3211,-0.3079,0.1001,-0.326,849.1531,-14.16,61.68,59.28,3,78.102,68.709,-86.447,49.17433114,-121.6777951,1.22000003
5.771,0.3689,-0.9485,0.0229,-1.8645,-2.8305,1.3211,-0.4943,0.4719,-0.1076,849.1531,-14.16,61.68,59.28,3,78.102,68.709,-86.447,49.17433114,-121.6777951,1.22000003
5.787,0.3689,-0.9485,0.0229,-1.5562,-1.0005,1.0174,-0.4943,0.4719,-0.1076,849.1531,-14.16,61.68,59.28,3,78.102,68.709,-86.447,49.17433114,-121.6777951,1.22000003
5.831,0.4622,-0.8791,-0.0264,-1.5562,-1.0005,1.0174,-0.4943,0.4719,-0.1076,849.1531,-14.16,61.68,59.28,3,77.222,62.226,-93.275,49.17433114,-121.6777951,1.22000003
5.835,0.4622,-0.8791,-0.0264,-1.5562,-1.0005,1.0174,-0.4943,0.4719,-0.1076,849.1531,-13.44,61.62,58.86,3,76.552,62.226,-93.275,49.17433114,-121.6777951,1.22000003
5.838,0.4622,-0.8791,-0.0264,-1.5562,-1.0005,1.0174,-0.4155,0.5955,0.0565,849.1531,-13.44,61.62,58.86,3,76.552,62.226,-93.275,49.17433114,-121.6777951,1.22000003
5.85,0.4622,-0.8791,-0.0264,-0.6167,-0.3023,0.5048,-0.4155,0.5955,0.0565,849.1531,-13.44,61.62,58.86,3,76.552,62.226,-93.275,49.17433114,-121.6777951,1.22000003
5.889,0.5966,-0.9416,-0.0582,-0.6167,-0.3023,0.5048,-0.4155,0.5955,0.0565,849.1531,-13.44,61.62,58.86,3,73.482,57.519,-95.572,49.17433114,-121.6777951,1.22000003
5.893,0.5966,-0.9416,-0.0582,-0.6167,-0.3023,0.5048,-0.4155,0.5955,0.0565,849.1531,-12.84,61.44,58.62,3,73.04,57.519,-95.572,49.17433114,-121.6777951,1.22000003
5.897,0.5966,-0.9416,-0.0582,-0.6167,-0.3023,0.5048,-0.3888,0.4368,0.1854,849.1531,-12.84,61.44,58.62,3,73.04,57.519,-95.572,49.17433114,-121.6777951,1.22000003
5.9,0.5966,-0.9416,-0.0582,-0.6167,-0.3023,0.5048,-0.3888,0.4368,0.1854,849.0312,-12.84,61.44,58.62,3,73.04,57.519,-95.572,49.17433114,-121.6777951,1.22000003
5.905,0.5966,-0.9416,-0.0582,-0.6167,-0.3023,0.5048,-0.3888,0.4368,0.1854,849.0312,-12.84,61.44,58.62,3,73.04,57.519,-95.572,49.17433114,-121.6777951,1.22000003
5.909,0.5966,-0.9416,-0.0582,0.737,-0.8924,0.1922,-0.3888,0.4368,0.1854,849.0312,-12.84,61.44,58.62,3,73.04,57.519,-95.572,49.17433114,-121.6777951,1.22000003
5.947,0.5927,-0.8234,-0.0587,0.737,-0.8924,0.1922,-0.3888,0.4368,0.1854,849.0312,-12.84,61.44,58.62,3,69.819,54.12,-95.656,49.17433114,-121.6777951,1.22000003
5.948,0.5927,-0.8234,-0.0587,0.737,-0.8924,0.1922,-0.3888,0.4368,0.1854,849.0312,-12.3,61.14,58.74,3,69.655,54.12,-95.656,49.17433114,-121.6777951,1.22000003
5.95,0.5927,-0.8234,-0.0587,0.737,-0.8924,0.1922,-0.4485,0.1747,0.2365,849.0312,-12.3,61.14,58.74,3,69.655,54.12,-95.656,49.17433114,-121.6777951,1.22000003
5.967,0.5927,-0.8234,-0.0587,0.7394,0.2858,0.2448,-0.4485,0.1747,0.2365,849.0312,-12.3,61.14,58.74,3,69.655,54.12,-95.656,49.17433114,-121.6777951,1.22000003
6.007,0.5546,-0.7247,-0.0206,0.7394,0.2858,0.2448,-0.4485,0.1747,0.2365,849.0312,-12.3,61.14,58.74,3,66.203,52.555,-92.126,49.17433114,-121.6777951,1.22000003
6.009,0.5546,-0.7247,-0.0206,0.7394,0.2858,0.2448,-0.4485,0.1747,0.2365,849.0312,-11.82,60.84,58.92,3,66.116,52.555,-92.126,49.17433114,-121.6777951,1.22000003
6.011,0.5546,-0.7247,-0.0206,0.7394,0.2858,0.2448,-0.2418,0.0597,0.2056,849.0312,-11.82,60.84,58.92,3,66.116,52.555,-92.126,49.17433114,-121.6777951,1.22000003
6.026,0.5546,-0.7247,-0.0206,0.4085,1.2637,0.7595,-0.2418,0.0597,0.2056,849.0312,-11.82,60.84,58.92,3,66.116,52.555,-92.126,49.17433114,-121.6777951,1.22000003
6.072,0.5257,-0.7354,-0.0367,0.4085,1.2637,0.7595,-0.2418,0.0597,0.2056,849.0312,-11.82,60.84,58.92,3,68.765,54.373,-93.994,49.17433114,-121.6777951,1.22000003
6.08,0.5257,-0.7354,-0.0367,0.4085,1.2637,0.7595,-0.2418,0.0597,0.2056,849.0312,-11.4,60.48,59.22,3,68.777,54.373,-93.994,49.17433114,-121.6777951,1.22000003
6.089,0.5257,-0.7354,-0.0367,0.4085,1.2637,0.7595,0.081,-0.0266,0.131,849.0312,-11.4,60.48,59.22,3,68.777,54.373,-93.994,49.17433114,-121.6777951,1.22000003
6.095,0.5257,-0.7354,-0.0367,0.4085,1.2637,0.7595,0.081,-0.0266,0.131,849.1311,-11.4,60.48,59.22,3,68.777,54.373,-93.994,49.17433114,-121.6777951,1.22000003
6.102,0.5257,-0.7354,-0.0367,0.4085,1.2637,0.7595,0.081,-0.0266,0.131,849.1311,-11.4,60.48,59.22,3,68.777,54.373,-93.994,49.17433114,-121.6777951,1.22000003
6.108,0.5257,-0.7354,-0.0367,0.1139,1.1633,0.4892,0.081,-0.0266,0.131,849.1311,-11.4,60.48,59.22,3,68.777,54.373,-93.994,49.17433114,-121.6777951,1.22000003
6.126,0.5712,-0.8776,-0.1721,0.1139,1.1633,0.4892,0.081,-0.0266,0.131,849.1311,-11.4,60.48,59.22,3,78.522,55.795,-106.763,49.17433114,-121.6777951,1.22000003
6.128,0.5712,-0.8776,-0.1721,0.1139,1.1633,0.4892,0.081,-0.0266,0.131,849.1311,-11.22,60.18,59.58,3,78.719,55.795,-106.763,49.17433114,-121.6777951,1.22000003
6.13,0.5712,-0.8776,-0.1721,0.1139,1.1633,0.4892,0.0735,0.049,-0.0756,849.1311,-11.22,60.18,59.58,3,78.719,55.795,-106.763,49.17433114,-121.6777951,1.22000003
6.148,0.5712,-0.8776,-0.1721,0.4483,-0.303,-0.7886,0.0735,0.049,-0.0756,849.1311,-11.22,60.18,59.58,3,78.719,55.795,-106.763,49.17433114,-121.6777951,1.22000003
6.19,0.5521,-0.7823,-0.089,0.4483,-0.303,-0.7886,0.0735,0.049,-0.0756,849.1311,-11.22,60.18,59.58,3,72.235,54.44,-99.156,49.17433114,-121.6777951,1.22000003
6.193,0.5521,-0.7823,-0.089,0.4483,-0.303,-0.7886,0.0735,0.049,-0.0756,849.1311,-11.16,59.76,60.06,3,72.609,54.44,-99.156,49.17433114,-121.6777951,1.22000003
6.196,0.5521,-0.7823,-0.089,0.4483,-0.303,-0.7886,-0.1257,-0.081,-0.1726,849.1311,-11.16,59.76,60.06,3,72.609,54.44,-99.156,49.17433114,-121.6777951,1.22000003
6.216,0.5521,-0.7823,-0.089,0.145,0.5516,0.0758,-0.1257,-0.081,-0.1726,849.1311,-11.16,59.76,60.06,3,72.609,54.44,-99.156,49.17433114,-121.6777951,1.22000003
6.248,0.5389,-0.8146,-0.0538,0.145,0.5516,0.0758,-0.1257,-0.081,-0.1726,849.1311,-11.16,59.76,60.06,3,72.164,56.38,-95.702,49.17433114,-121.6777951,1.22000003
6.249,0.5389,-0.8146,-0.0538,0.145,0.5516,0.0758,-0.1257,-0.081,-0.1726,849.1311,-11.34,59.28,60.6,3,72.716,56.38,-95.702,49.17433114,-121.6777951,1.22000003
6.251,0.5389,-0.8146,-0.0538,0.145,0.5516,0.0758,0.0075,-0.0447,-0.2802,849.1311,-11.34,59.28,60.6,3,72.716,56.38,-95.702,49.17433114,-121.6777951,1.22000003
6.253,0.5389,-0.8146,-0.0538,0.145,0.5516,0.0758,0.0075,-0.0447,-0.2802,849.2046,-11.34,59.28,60.6,3,72.716,56.38,-95.702,49.17433114,-121.6777951,1.22000003
6.254,0.5389,-0.8146,-0.0538,0.145,0.5516,0.0758,0.0075,-0.0447,-0.2802,849.2046,-11.34,59.28,60.6,3,72.716,56.38,-95.702,49.17433114,-121.6777951,1.22000003
6.266,0.5389,-0.8146,-0.0538,-0.1347,0.1408,0.3892,0.0075,-0.0447,-0.2802,849.2046,-11.34,59.28,60.6,3,72.716,56.38,-95.702,49.17433114,-121.6777951,1.22000003
6.309,0.4891,-0.8068,-0.1408,-0.1347,0.1408,0.3892,0.0075,-0.0447,-0.2802,849.2046,-11.34,59.28,60.6,3,81.499,57.753,-106.058,49.17433114,-121.6777951,1.22000003
6.313,0.4891,-0.8068,-0.1408,-0.1347,0.1408,0.3892,0.0075,-0.0447,-0.2802,849.2046,-11.64,58.8,61.26,3,82.242,57.753,-106.058,49.17433114,-121.6777951,1.22000003
6.316,0.4891,-0.8068,-0.1408,-0.1347,0.1408,0.3892,-0.0011,0.0639,-0.3025,849.2046,-11.64,58.8,61.26,3,82.242,57.753,-106.058,49.17433114,-121.6777951,1.22000003
6.328,0.4891,-0.8068,-0.1408,-0.745,0.1326,-0.4437,-0.0011,0.0639,-0.3025,849.2046,-11.64,58.8,61.26,3,82.242,57.753,-106.058,49.17433114,-121.6777951,1.22000003
6.369,0.4959,-0.7711,-0.0934,-0.745,0.1326,-0.4437,-0.0011,0.0639,-0.3025,849.2046,-11.64,58.8,61.26,3,77.242,56.796,-100.664,49.17433114,-121.6777951,1.22000003
6.372,0.4959,-0.7711,-0.0934,-0.745,0.1326,-0.4437,-0.0011,0.0639,-0.3025,849.2046,-11.94,58.26,61.98,3,77.989,56.796,-100.664,49.17433114,-121.6777951,1.22000003
6.376,0.4959,-0.7711,-0.0934,-0.745,0.1326,-0.4437,-0.0266,-0.065,-0.1907,849.2046,-11.94,58.26,61.98,3,77.989,56.796,-100.664,49.17433114,-121.6777951,1.22000003
6.39,0.4959,-0.7711,-0.0934,-0.7116,0.4554,0.0503,-0.0266,-0.065,-0.1907,849.2046,-11.94,58.26,61.98,3,77.989,56.796,-100.664,49.17433114,-121.6777951,1.22000003
6.429,0.3992,-0.7823,-0.0523,-0.7116,0.4554,0.0503,-0.0266,-0.065,-0.1907,849.2046,-11.94,58.26,61.98,3,81.485,62.768,-97.47,49.17433114,-121.6777951,1.22000003
6.431,0.3992,-0.7823,-0.0523,-0.7116,0.4554,0.0503,-0.0266,-0.065,-0.1907,849.2046,-12.36,57.72,62.76,3,82.24,62.768,-97.47,49.17433114,-121.6777951,1.22000003
6.434,0.3992,-0.7823,-0.0523,-0.7116,0.4554,0.0503,0.1768,-0.0756,-0.0032,849.2046,-12.36,57.72,62.76,3,82.24,62.768,-97.47,49.17433114,-121.6777951,1.22000003
6.436,0.3992,-0.7823,-0.0523,-0.7116,0.4554,0.0503,0.1768,-0.0756,-0.0032,849.2188,-12.36,57.72,62.76,3,82.24,62.768,-97.47,49.17433114,-121.6777951,1.22000003
6.439,0.3992,-0.7823,-0.0523,-0.7116,0.4554,0.0503,0.1768,-0.0756,-0.0032,849.2188,-12.36,57.72,62.76,3,82.24,62.768,-97.47,49.17433114,-121.6777951,1.22000003
6.447,0.3992,-0.7823,-0.0523,-1.5539,0.4347,0.2984,0.1768,-0.0756,-0.0032,849.2188,-12.36,57.72,62.76,3,82.24,62.768,-97.47,49.17433114,-121.6777951,1.22000003
6.486,0.4554,-1.0042,-0.1481,-1.5539,0.4347,0.2984,0.1768,-0.0756,-0.0032,849.2188,-12.36,57.72,62.76,3,93.366,64.504,-108.017,49.17433114,-121.6777951,1.22000003
6.487,0.4554,-1.0042,-0.1481,-1.5539,0.4347,0.2984,0.1768,-0.0756,-0.0032,849.2188,-12.72,57.18,63.54,3,94.095,64.504,-108.017,49.17433114,-121.6777951,1.22000003
6.489,0.4554,-1.0042,-0.1481,-1.5539,0.4347,0.2984,0.1736,0.3377,0.1012,849.2188,-12.72,57.18,63.54,3,94.095,64.504,-108.017,49.17433114,-121.6777951,1.22000003
6.506,0.4554,-1.0042,-0.1481,-0.8902,-1.6509,-0.7864,0.1736,0.3377,0.1012,849.2188,-12.72,57.18,63.54,3,94.095,64.504,-108.017,49.17433114,-121.6777951,1.22000003
6.549,0.6069,-1.0046,-0.2273,-0.8902,-1.6509,-0.7864,0.1736,0.3377,0.1012,849.2188,-12.72,57.18,63.54,3,87.652,57.177,-110.531,49.17433114,-121.6777951,1.22000003
6.552,0.6069,-1.0046,-0.2273,-0.8902,-1.6509,-0.7864,0.1736,0.3377,0.1012,849.2188,-13.08,56.7,64.32,3,88.473,57.177,-110.531,49.17433114,-121.6777951,1.22000003
6.555,0.6069,-1.0046,-0.2273,-0.8902,-1.6509,-0.7864,-0.1683,0.8213,0.0756,849.2188,-13.08,56.7,64.32,3,88.473,57.177,-110.531,49.17433114,-121.6777951,1.22000003
6.568,0.6069,-1.0046,-0.2273,0.5944,-1.6544,-1.5773,-0.1683,0.8213,0.0756,849.2188,-13.08,56.7,64.32,3,88.473,57.177,-110.531,49.17433114,-121.6777951,1.22000003
6.612,0.6337,-0.8287,-0.2664,0.5944,-1.6544,-1.5773,-0.1683,0.8213,0.0756,849.2188,-13.08,56.7,64.32,3,81.881,50.325,-112.797,49.17433114,-121.6777951,1.22000003
6.619,0.6337,-0.8287,-0.2664,0.5944,-1.6544,-1.5773,-0.1683,0.8213,0.0756,849.2188,-13.44,56.16,65.04,3,82.795,50.325,-112.797,49.17433114,-121.6777951,1.22000003
6.629,0.6337,-0.8287,-0.2664,0.5944,-1.6544,-1.5773,-0.4421,0.7052,0.1704,849.2188,-13.44,56.16,65.04,3,82.795,50.325,-112.797,49.17433114,-121.6777951,1.22000003
6.636,0.6337,-0.8287,-0.2664,0.5944,-1.6544,-1.5773,-0.4421,0.7052,0.1704,849.1555,-13.44,56.16,65.04,3,82.795,50.325,-112.797,49.17433114,-121.6777951,1.22000003
6.641,0.6337,-0.8287,-0.2664,0.5944,-1.6544,-1.5773,-0.4421,0.7052,0.1704,849.1555,-13.44,56.16,65.04,3,82.795,50.325,-112.797,49.17433114,-121.6777951,1.22000003
6.646,0.6337,-0.8287,-0.2664,0.8353,0.0449,-1.8467,-0.4421,0.7052,0.1704,849.1555,-13.44,56.16,65.04,3,82.795,50.325,-112.797,49.17433114,-121.6777951,1.22000003
6.668,0.6601,-0.7291,-0.0665,0.8353,0.0449,-1.8467,-0.4421,0.7052,0.1704,849.1555,-13.44,56.16,65.04,3,69.982,47.698,-95.754,49.17433114,-121.6777951,1.22000003
6.671,0.6601,-0.7291,-0.0665,0.8353,0.0449,-1.8467,-0.4421,0.7052,0.1704,849.1555,-13.74,55.74,65.76,3,70.622,47.698,-95.754,49.17433114,-121.6777951,1.22000003
6.675,0.6601,-0.7291,-0.0665,0.8353,0.0449,-1.8467,-0.4677,0.4453,0.13,849.1555,-13.74,55.74,65.76,3,70.622,47.698,-95.754,49.17433114,-121.6777951,1.22000003
6.689,0.6601,-0.7291,-0.0665,1.0566,0.9929,0.1546,-0.4677,0.4453,0.13,849.1555,-13.74,55.74,65.76,3,70.622,47.698,-95.754,49.17433114,-121.6777951,1.22000003
6.728,0.6298,-0.7848,-0.1061,1.0566,0.9929,0.1546,-0.4677,0.4453,0.13,849.1555,-13.74,55.74,65.76,3,75.48,50.859,-99.561,49.17433114,-121.6777951,1.22000003
6.731,0.6298,-0.7848,-0.1061,1.0566,0.9929,0.1546,-0.4677,0.4453,0.13,849.1555,-13.98,55.44,66.3,3,75.966,50.859,-99.561,49.17433114,-121.6777951,1.22000003
6.739,0.6298,-0.7848,-0.1061,1.0566,0.9929,0.1546,-0.2258,0.228,0.1726,849.1555,-13.98,55.44,66.3,3,75.966,50.859,-99.561,49.17433114,-121.6777951,1.22000003
6.755,0.6298,-0.7848,-0.1061,0.7825,0.4566,-0.1789,-0.2258,0.228,0.1726,849.1555,-13.98,55.44,66.3,3,75.966,50.859,-99.561,49.17433114,-121.6777951,1.22000003
6.786,0.6269,-0.7271,-0.1188,0.7825,0.4566,-0.1789,-0.2258,0.228,0.1726,849.1555,-13.98,55.44,66.3,3,74.823,48.733,-100.73,49.17433114,-121.6777951,1.22000003
6.788,0.6269,-0.7271,-0.1188,0.7825,0.4566,-0.1789,-0.2258,0.228,0.1726,849.1555,-14.1,55.26,66.78,3,75.16,48.733,-100.73,49.17433114,-121.6777951,1.22000003
6.789,0.6269,-0.7271,-0.1188,0.7825,0.4566,-0.1789,-0.18,0.1502,0.3174,849.1555,-14.1,55.26,66.78,3,75.16,48.733,-100.73,49.17433114,-121.6777951,1.22000003
6.791,0.6269,-0.7271,-0.1188,0.7825,0.4566,-0.1789,-0.18,0.1502,0.3174,849.1846,-14.1,55.26,66.78,3,75.16,48.733,-100.73,49.17433114,-121.6777951,1.22000003
6.793,0.6269,-0.7271,-0.1188,0.7825,0.4566,-0.1789,-0.18,0.1502,0.3174,849.1846,-14.1,55.26,66.78,0,75.16,48.733,-100.73,49.17433114,-121.6777951,1.22000003
6.805,0.6269,-0.7271,-0.1188,0.8431,1.0747,-0.2542,-0.18,0.1502,0.3174,849.1846,-14.1,55.26,66.78,0,75.16,48.733,-100.73,49.17433114,-121.6777951,1.22000003
6.849,0.663,-0.6465,-0.0411,0.8431,1.0747,-0.2542,-0.18,0.1502,0.3174,849.1846,-14.1,55.26,66.78,0,67.754,44.221,-93.547,49.17433114,-121.6777951,1.22000003
6.859,0.663,-0.6465,-0.0411,0.8431,1.0747,-0.2542,-0.18,0.1502,0.3174,849.1846,-14.16,55.14,67.14,0,67.969,44.221,-93.547,49.17433114,-121.6777951,1.22000003
6.866,0.663,-0.6465,-0.0411,0.8431,1.0747,-0.2542,0.131,-0.0149,0.4996,849.1846,-14.16,55.14,67.14,0,67.969,44.221,-93.547,49.17433114,-121.6777951,1.22000003
6.868,0.663,-0.6465,-0.0411,1.3047,1.9476,0.3637,0.131,-0.0149,0.4996,849.1846,-14.16,55.14,67.14,0,67.969,44.221,-93.547,49.17433114,-121.6777951,1.22000003
6.908,0.751,-0.7843,-0.066,1.3047,1.9476,0.3637,0.131,-0.0149,0.4996,849.1846,-14.16,55.14,67.14,0,70.068,46.132,-95.024,49.17433114,-121.6777951,1.22000003
6.911,0.751,-0.7843,-0.066,1.3047,1.9476,0.3637,0.131,-0.0149,0.4996,849.1846,-14.22,55.14,67.32,0,70.158,46.132,-95.024,49.17433114,-121.6777951,1.22000003
6.915,0.751,-0.7843,-0.066,1.3047,1.9476,0.3637,0.5742,-0.3601,0.5507,849.1846,-14.22,55.14,67.32,0,70.158,46.132,-95.024,49.17433114,-121.6777951,1.22000003
6.934,0.751,-0.7843,-0.066,2.2856,0.6836,-0.0368,0.5742,-0.3601,0.5507,849.1846,-14.22,55.14,67.32,0,70.158,46.132,-95.024,49.17433778,-121.6777583,0.20999999
6.966,0.6684,-0.8302,-0.1598,2.2856,0.6836,-0.0368,0.5742,-0.3601,0.5507,849.1846,-14.22,55.14,67.32,0,78.677,50.381,-103.448,49.17433778,-121.6777583,0.20999999
6.968,0.6684,-0.8302,-0.1598,2.2856,0.6836,-0.0368,0.5742,-0.3601,0.5507,849.1846,-14.16,55.14,67.38,0,78.66,50.381,-103.448,49.17433778,-121.6777583,0.20999999
6.969,0.6684,-0.8302,-0.1598,2.2856,0.6836,-0.0368,0.6637,-0.8266,0.4005,849.1846,-14.16,55.14,67.38,0,78.66,50.381,-103.448,49.17433778,-121.6777583,0.20999999
6.971,0.6684,-0.8302,-0.1598,2.2856,0.6836,-0.0368,0.6637,-0.8266,0.4005,849.0312,-14.16,55.14,67.38,0,78.66,50.381,-103.448,49.17433778,-121.6777583,0.20999999
6.973,0.6684,-0.8302,-0.1598,2.2856,0.6836,-0.0368,0.6637,-0.8266,0.4005,849.0312,-14.16,55.14,67.38,3,78.66,50.381,-103.448,49.17433778,-121.6777583,0.20999999
6.985,0.6684,-0.8302,-0.1598,1.5964,0.3035,-0.9339,0.6637,-0.8266,0.4005,849.0312,-14.16,55.14,67.38,3,78.66,50.381,-103.448,49.17433778,-121.6777583,0.20999999
7.029,0.5609,-0.7638,-0.0533,1.5964,0.3035,-0.9339,0.6637,-0.8266,0.4005,849.0312,-14.16,55.14,67.38,3,76.107,53.582,-95.43,49.17433778,-121.6777583,0.20999999
7.032,0.5609,-0.7638,-0.0533,1.5964,0.3035,-0.9339,0.6637,-0.8266,0.4005,849.0312,-13.98,55.14,67.26,3,75.96,53.582,-95.43,49.17433778,-121.6777583,0.20999999
7.036,0.5609,-0.7638,-0.0533,1.5964,0.3035,-0.9339,0.5752,-1.2773,0.3238,849.0312,-13.98,55.14,67.26,3,75.96,53.582,-95.43,49.17433778,-121.6777583,0.20999999
7.048,0.5609,-0.7638,-0.0533,0.6656,1.0215,0.1617,0.5752,-1.2773,0.3238,849.0312,-13.98,55.14,67.26,3,75.96,53.582,-95.43,49.17433778,-121.6777583,0.20999999
7.087,0.4329,-0.7437,0.0718,0.6656,1.0215,0.1617,0.5752,-1.2773,0.3238,849.0312,-13.98,55.14,67.26,3,69.535,59.458,-80.587,49.17433778,-121.6777583,0.20999999
7.09,0.4329,-0.7437,0.0718,0.6656,1.0215,0.1617,0.5752,-1.2773,0.3238,849.0312,-13.68,55.14,67.14,3,69.315,59.458,-80.587,49.17433778,-121.6777583,0.20999999
7.093,0.4329,-0.7437,0.0718,0.6656,1.0215,0.1617,0.686,-1.4775,0.1641,849.0312,-13.68,55.14,67.14,3,69.315,59.458,-80.587,49.17433778,-121.6777583,0.20999999
7.111,0.4329,-0.7437,0.0718,-0.4649,1.2913,1.3332,0.686,-1.4775,0.1641,849.0312,-13.68,55.14,67.14,3,69.315,59.458,-80.587,49.17433778,-121.6777583,0.20999999
7.145,0.5042,-1.0222,0.1915,-0.4649,1.2913,1.3332,0.686,-1.4775,0.1641,849.0312,-13.68,55.14,67.14,3,62.302,62.182,-69.207,49.17433778,-121.6777583,0.20999999
7.147,0.5042,-1.0222,0.1915,-0.4649,1.2913,1.3332,0.686,-1.4775,0.1641,849.0312,-13.44,55.14,67.02,3,62.126,62.182,-69.207,49.17433778,-121.6777583,0.20999999
7.148,0.5042,-1.0222,0.1915,-0.4649,1.2913,1.3332,0.5177,-1.3518,0,849.0312,-13.44,55.14,67.02,3,62.126,62.182,-69.207,49.17433778,-121.6777583,0.20999999
7.15,0.5042,-1.0222,0.1915,-0.4649,1.2913,1.3332,0.5177,-1.3518,0,849.1672,-13.44,55.14,67.02,3,62.126,62.182,-69.207,49.17433778,-121.6777583,0.20999999
7.152,0.5042,-1.0222,0.1915,-0.4649,1.2913,1.3332,0.5177,-1.3518,0,849.1672,-13.44,55.14,67.02,3,62.126,62.182,-69.207,49.17433778,-121.6777583,0.20999999
7.166,0.5042,-1.0222,0.1915,0.2746,-1.4107,2.4285,0.5177,-1.3518,0,849.1672,-13.44,55.14,67.02,3,62.126,62.182,-69.207,49.17433778,-121.6777583,0.20999999
7.207,0.472,-1.1576,0.1358,0.2746,-1.4107,2.4285,0.5177,-1.3518,0,849.1672,-13.44,55.14,67.02,3,68.597,67.009,-73.952,49.17433778,-121.6777583,0.20999999
7.209,0.472,-1.1576,0.1358,0.2746,-1.4107,2.4285,0.5177,-1.3518,0,849.1672,-13.2,55.14,66.9,3,68.412,67.009,-73.952,49.17433778,-121.6777583,0.20999999
7.212,0.472,-1.1576,0.1358,0.2746,-1.4107,2.4285,0.2024,-1.0077,-0.0969,849.1672,-13.2,55.14,66.9,3,68.412,67.009,-73.952,49.17433778,-121.6777583,0.20999999
7.225,0.472,-1.1576,0.1358,-0.0039,-2.7201,1.9303,0.2024,-1.0077,-0.0969,849.1672,-13.2,55.14,66.9,3,68.412,67.009,-73.952,49.17433778,-121.6777583,0.20999999
7.27,0.4363,-0.8893,0.063,-0.0039,-2.7201,1.9303,0.2024,-1.0077,-0.0969,849.1672,-13.2,55.14,66.9,3,72.596,63.632,-81.788,49.17433778,-121.6777583,0.20999999
7.277,0.4363,-0.8893,0.063,-0.0039,-2.7201,1.9303,0.2024,-1.0077,-0.0969,849.1672,-13.02,55.14,66.72,3,72.442,63.632,-81.788,49.17433778,-121.6777583,0.20999999
7.285,0.4363,-0.8893,0.063,-0.0039,-2.7201,1.9303,0.277,-1.0322,-0.0415,849.1672,-13.02,55.14,66.72,3,72.442,63.632,-81.788,49.17433778,-121.6777583,0.20999999
7.287,0.4363,-0.8893,0.063,-0.2912,-0.0608,1.2549,0.277,-1.0322,-0.0415,849.1672,-13.02,55.14,66.72,3,72.442,63.632,-81.788,49.17433778,-121.6777583,0.20999999
7.325,0.3982,-0.8625,0.1094,-0.2912,-0.0608,1.2549,0.277,-1.0322,-0.0415,849.1672,-13.02,55.14,66.72,3,67.247,64.414,-74.64,49.17433778,-121.6777583,0.20999999
7.327,0.3982,-0.8625,0.1094,-0.2912,-0.0608,1.2549,0.277,-1.0322,-0.0415,849.1672,-12.78,55.14,66.6,3,67.063,64.414,-74.64,49.17433778,-121.6777583,0.20999999
7.329,0.3982,-0.8625,0.1094,-0.2912,-0.0608,1.2549,0.4186,-1.3007,0.1023,849.1672,-12.78,55.14,66.6,3,67.063,64.414,-74.64,49.17433778,-121.6777583,0.20999999
7.331,0.3982,-0.8625,0.1094,-0.2912,-0.0608,1.2549,0.4186,-1.3007,0.1023,849.2639,-12.78,55.14,66.6,3,67.063,64.414,-74.64,49.17433778,-121.6777583,0.20999999
7.332,0.3982,-0.8625,0.1094,-0.2912,-0.0608,1.2549,0.4186,-1.3007,0.1023,849.2639,-12.78,55.14,66.6,3,67.063,64.414,-74.64,49.17433778,-121.6777583,0.20999999
7.345,0.3982,-0.8625,0.1094,-0.5386,0.2674,1.7172,0.4186,-1.3007,0.1023,849.2639,-12.78,55.14,66.6,3,67.063,64.414,-74.64,49.17433778,-121.6777583,0.20999999
7.387,0.3064,-0.7628,0.1631,-0.5386,0.2674,1.7172,0.4186,-1.3007,0.1023,849.2639,-12.78,55.14,66.6,3,57.636,65.533,-61.965,49.17433778,-121.6777583,0.20999999
7.393,0.3064,-0.7628,0.1631,-0.5386,0.2674,1.7172,0.4186,-1.3007,0.1023,849.2639,-12.6,55.08,66.42,3,57.511,65.533,-61.965,49.17433778,-121.6777583,0.20999999
7.406,0.3064,-0.7628,0.1631,-0.5386,0.2674,1.7172,0.2812,-1.3177,0.1417,849.2639,-12.6,55.08,66.42,3,57.511,65.533,-61.965,49.17433778,-121.6777583,0.20999999
7.408,0.3064,-0.7628,0.1631,-1.2982,1.3116,2.2807,0.2812,-1.3177,0.1417,849.2639,-12.6,55.08,66.42,3,57.511,65.533,-61.965,49.17433778,-121.6777583,0.20999999
7.445,0.3411,-0.8957,0.2227,-1.2982,1.3116,2.2807,0.2812,-1.3177,0.1417,849.2639,-12.6,55.08,66.42,3,53.492,65.545,-56.851,49.17433778,-121.6777583,0.20999999
7.447,0.3411,-0.8957,0.2227,-1.2982,1.3116,2.2807,0.2812,-1.3177,0.1417,849.2639,-12.42,55.08,66.24,3,53.354,65.545,-56.851,49.17433778,-121.6777583,0.20999999
7.449,0.3411,-0.8957,0.2227,-1.2982,1.3116,2.2807,0.2397,-1.1132,0.0852,849.2639,-12.42,55.08,66.24,3,53.354,65.545,-56.851,49.17433778,-121.6777583,0.20999999
7.465,0.3411,-0.8957,0.2227,-0.8293,0.0765,2.7907,0.2397,-1.1132,0.0852,849.2639,-12.42,55.08,66.24,3,53.354,65.545,-56.851,49.17433778,-121.6777583,0.20999999
7.514,0.4573,-1.0784,0.2701,-0.8293,0.0765,2.7907,0.2397,-1.1132,0.0852,849.2639,-12.42,55.08,66.24,3,54.633,63.778,-59.431,49.17433778,-121.6777583,0.20999999
7.532,0.4573,-1.0784,0.2701,-0.8293,0.0765,2.7907,0.2397,-1.1132,0.0852,849.2639,-12.24,55.08,66.12,3,54.499,63.778,-59.431,49.17433778,-121.6777583,0.20999999
7.538,0.4573,-1.0784,0.2701,-0.8293,0.0765,2.7907,0.2248,-0.7808,-0.049,849.2639,-12.24,55.08,66.12,3,54.499,63.778,-59.431,49.17433778,-121.6777583,0.20999999
7.546,0.4573,-1.0784,0.2701,-0.8293,0.0765,2.7907,0.2248,-0.7808,-0.049,849.2424,-12.24,55.08,66.12,3,54.499,63.778,-59.431,49.17433778,-121.6777583,0.20999999
7.55,0.4573,-1.0784,0.2701,-0.8293,0.0765,2.7907,0.2248,-0.7808,-0.049,849.2424,-12.24,55.08,66.12,3,54.499,63.778,-59.431,49.17433778,-121.6777583,0.20999999
7.555,0.4573,-1.0784,0.2701,0.3096,-1.7044,3.0806,0.2248,-0.7808,-0.049,849.2424,-12.24,55.08,66.12,3,54.499,63.778,-59.431,49.17433778,-121.6777583,0.20999999
7.569,0.4485,-1.2929,0.1314,0.3096,-1.7044,3.0806,0.2248,-0.7808,-0.049,849.2424,-12.24,55.08,66.12,3,69.391,70.125,-73.675,49.17433778,-121.6777583,0.20999999
7.573,0.4485,-1.2929,0.1314,0.3096,-1.7044,3.0806,0.2248,-0.7808,-0.049,849.2424,-12.12,55.02,66,3,69.306,70.125,-73.675,49.17433778,-121.6777583,0.20999999
7.576,0.4485,-1.2929,0.1314,0.3096,-1.7044,3.0806,0.0533,-0.408,-0.1609,849.2424,-12.12,55.02,66,3,69.306,70.125,-73.675,49.17433778,-121.6777583,0.20999999
7.586,0.4485,-1.2929,0.1314,0.2688,-3.7839,1.6904,0.0533,-0.408,-0.1609,849.2424,-12.12,55.02,66,3,69.306,70.125,-73.675,49.17433778,-121.6777583,0.20999999
7.634,0.343,-1.0975,-0.2361,0.2688,-3.7839,1.6904,0.0533,-0.408,-0.1609,849.2424,-12.12,55.02,66,3,117.572,69.223,-124.536,49.17433778,-121.6777583,0.20999999
7.636,0.343,-1.0975,-0.2361,0.2688,-3.7839,1.6904,0.0533,-0.408,-0.1609,849.2424,-12.18,54.96,66,3,117.653,69.223,-124.536,49.17433778,-121.6777583,0.20999999
7.638,0.343,-1.0975,-0.2361,0.2688,-3.7839,1.6904,-0.1641,-0.1949,0.1353,849.2424,-12.18,54.96,66,3,117.653,69.223,-124.536,49.17433778,-121.6777583,0.20999999
7.649,0.343,-1.0975,-0.2361,-0.6024,-1.8098,-1.6536,-0.1641,-0.1949,0.1353,849.2424,-12.18,54.96,66,3,117.653,69.223,-124.536,49.17433778,-121.6777583,0.20999999
7.686,0.3005,-0.8204,-0.2087,-0.6024,-1.8098,-1.6536,-0.1641,-0.1949,0.1353,849.2424,-12.18,54.96,66,3,114.097,65.966,-124.78,49.17433778,-121.6777583,0.20999999
7.689,0.3005,-0.8204,-0.2087,-0.6024,-1.8098,-1.6536,-0.1641,-0.1949,0.1353,849.2424,-12.36,54.84,66.24,3,114.365,65.966,-124.78,49.17433778,-121.6777583,0.20999999
7.693,0.3005,-0.8204,-0.2087,-0.6024,-1.8098,-1.6536,0.1246,-0.261,0.1502,849.2424,-12.36,54.84,66.24,3,114.365,65.966,-124.78,49.17433778,-121.6777583,0.20999999
7.697,0.3005,-0.8204,-0.2087,-0.6024,-1.8098,-1.6536,0.1246,-0.261,0.1502,849.1328,-12.36,54.84,66.24,3,114.365,65.966,-124.78,49.17433778,-121.6777583,0.20999999
7.7,0.3005,-0.8204,-0.2087,-0.6024,-1.8098,-1.6536,0.1246,-0.261,0.1502,849.1328,-12.36,54.84,66.24,3,114.365,65.966,-124.78,49.17433778,-121.6777583,0.20999999
7.711,0.3005,-0.8204,-0.2087,-0.9475,0.9317,-1.3232,0.1246,-0.261,0.1502,849.1328,-12.36,54.84,66.24,3,114.365,65.966,-124.78,49.17433778,-121.6777583,0.20999999
7.743,0.2052,-0.8024,-0.3387,-0.9475,0.9317,-1.3232,0.1246,-0.261,0.1502,849.1328,-12.36,54.84,66.24,3,143.643,63.732,-148.786,49.17433778,-121.6777583,0.20999999
7.745,0.2052,-0.8024,-0.3387,-0.9475,0.9317,-1.3232,0.1246,-0.261,0.1502,849.1328,-12.6,54.72,66.66,3,144.038,63.732,-148.786,49.17433778,-121.6777583,0.20999999
7.746,0.2052,-0.8024,-0.3387,-0.9475,0.9317,-1.3232,0.1449,-0.0341,-0.1651,849.1328,-12.6,54.72,66.66,3,144.038,63.732,-148.786,49.17433778,-121.6777583,0.20999999
7.766,0.2052,-0.8024,-0.3387,-1.864,1.0996,-2.4118,0.1449,-0.0341,-0.1651,849.1328,-12.6,54.72,66.66,3,144.038,63.732,-148.786,49.17433778,-121.6777583,0.20999999
7.809,0.1529,-0.9216,-0.4393,-1.864,1.0996,-2.4118,0.1449,-0.0341,-0.1651,849.1328,-12.6,54.72,66.66,3,164.134,63.217,-160.806,49.17433778,-121.6777583,0.20999999
7.816,0.1529,-0.9216,-0.4393,-1.864,1.0996,-2.4118,0.1449,-0.0341,-0.1651,849.1328,-12.84,54.48,67.14,3,164.482,63.217,-160.806,49.17433778,-121.6777583,0.20999999
7.826,0.1529,-0.9216,-0.4393,-1.864,1.0996,-2.4118,-0.1704,0.0884,-0.2333,849.1328,-12.84,54.48,67.14,3,164.482,63.217,-160.806,49.17433778,-121.6777583,0.20999999
7.833,0.1529,-0.9216,-0.4393,-2.3511,-0.0931,-3.0998,-0.1704,0.0884,-0.2333,849.1328,-12.84,54.48,67.14,3,164.482,63.217,-160.806,49.17433778,-121.6777583,0.20999999
7.87,0.2922,-1.1928,-0.3113,-2.3511,-0.0931,-3.0998,-0.1704,0.0884,-0.2333,849.1328,-12.84,54.48,67.14,3,134.54,70.305,-136.814,49.17433778,-121.6777583,0.20999999
7.876,0.2922,-1.1928,-0.3113,-2.3511,-0.0931,-3.0998,-0.1704,0.0884,-0.2333,849.1328,-13.2,54.3,67.68,3,134.979,70.305,-136.814,49.17433778,-121.6777583,0.20999999
7.879,0.2922,-1.1928,-0.3113,-2.3511,-0.0931,-3.0998,-0.3057,0.4069,-0.1758,849.1328,-13.2,54.3,67.68,3,134.979,70.305,-136.814,49.17433778,-121.6777583,0.20999999
7.881,0.2922,-1.1928,-0.3113,-2.3511,-0.0931,-3.0998,-0.3057,0.4069,-0.1758,849.1545,-13.2,54.3,67.68,3,134.979,70.305,-136.814,49.17433778,-121.6777583,0.20999999
7.883,0.2922,-1.1928,-0.3113,-2.3511,-0.0931,-3.0998,-0.3057,0.4069,-0.1758,849.1545,-13.2,54.3,67.68,3,134.979,70.305,-136.814,49.17433778,-121.6777583,0.20999999
7.885,0.2922,-1.1928,-0.3113,-0.9715,-2.7691,-1.6734,-0.3057,0.4069,-0.1758,849.1545,-13.2,54.3,67.68,3,134.979,70.305,-136.814,49.17433778,-121.6777583,0.20999999
7.924,0.2228,-0.8859,-0.1921,-0.9715,-2.7691,-1.6734,-0.3057,0.4069,-0.1758,849.1545,-13.2,54.3,67.68,3,128.826,71.631,-130.765,49.17433778,-121.6777583,0.20999999
7.927,0.2228,-0.8859,-0.1921,-0.9715,-2.7691,-1.6734,-0.3057,0.4069,-0.1758,849.1545,-13.62,54.06,68.28,3,129.314,71.631,-130.765,49.17433778,-121.6777583,0.20999999
7.929,0.2228,-0.8859,-0.1921,-0.9715,-2.7691,-1.6734,-0.6647,0.522,0.0788,849.1545,-13.62,54.06,68.28,3,129.314,71.631,-130.765,49.17433778,-121.6777583,0.20999999
7.943,0.2228,-0.8859,-0.1921,-1.5399,0.2498,-0.2915,-0.6647,0.522,0.0788,849.1545,-13.62,54.06,68.28,3,129.314,71.631,-130.765,49.17434277,-121.6777712,0.25999999
7.984,0.3034,-0.819,-0.0523,-1.5399,0.2498,-0.2915,-0.6647,0.522,0.0788,849.1545,-13.62,54.06,68.28,3,93.877,69.395,-99.787,49.17434277,-121.6777712,0.25999999
7.986,0.3034,-0.819,-0.0523,-1.5399,0.2498,-0.2915,-0.6647,0.522,0.0788,849.1545,-14.22,53.82,69,3,94.495,69.395,-99.787,49.17434277,-121.6777712,0.25999999
7.988,0.3034,-0.819,-0.0523,-1.5399,0.2498,-0.2915,-0.6999,0.8863,0.3537,849.1545,-14.22,53.82,69,3,94.495,69.395,-99.787,49.17434277,-121.6777712,0.25999999
8.003,0.3034,-0.819,-0.0523,-0.6515,0.9307,1.1622,-0.6999,0.8863,0.3537,849.1545,-14.22,53.82,69,3,94.495,69.395,-99.787,49.17434277,-121.6777712,0.25999999
8.046,0.3484,-0.7384,0.0224,-0.6515,0.9307,1.1622,-0.6999,0.8863,0.3537,849.1545,-14.22,53.82,69,3,78.511,64.695,-86.319,49.17434277,-121.6777712,0.25999999
8.049,0.3484,-0.7384,0.0224,-0.6515,0.9307,1.1622,-0.6999,0.8863,0.3537,849.1545,-14.88,53.58,69.72,3,79.145,64.695,-86.319,49.17434277,-121.6777712,0.25999999
8.052,0.3484,-0.7384,0.0224,-0.6515,0.9307,1.1622,-0.4634,1.0493,0.3537,849.1545,-14.88,53.58,69.72,3,79.145,64.695,-86.319,49.17434277,-121.6777712,0.25999999
8.055,0.3484,-0.7384,0.0224,-0.6515,0.9307,1.1622,-0.4634,1.0493,0.3537,849.196,-14.88,53.58,69.72,3,79.145,64.695,-86.319,49.17434277,-121.6777712,0.25999999
8.058,0.3484,-0.7384,0.0224,-0.6515,0.9307,1.1622,-0.4634,1.0493,0.3537,849.196,-14.88,53.58,69.72,3,79.145,64.695,-86.319,49.17434277,-121.6777712,0.25999999
8.068,0.3484,-0.7384,0.0224,-0.1766,1.7572,1.7693,-0.4634,1.0493,0.3537,849.196,-14.88,53.58,69.72,3,79.145,64.695,-86.319,49.17434277,-121.6777712,0.25999999
8.105,0.3567,-0.8439,0.0327,-0.1766,1.7572,1.7693,-0.4634,1.0493,0.3537,849.196,-14.88,53.58,69.72,3,79.477,67.002,-84.766,49.17434277,-121.6777712,0.25999999
8.109,0.3567,-0.8439,0.0327,-0.1766,1.7572,1.7693,-0.4634,1.0493,0.3537,849.196,-15.48,53.4,70.5,3,80.027,67.002,-84.766,49.17434277,-121.6777712,0.25999999
8.112,0.3567,-0.8439,0.0327,-0.1766,1.7572,1.7693,-0.2344,1.1697,0.3878,849.196,-15.48,53.4,70.5,3,80.027,67.002,-84.766,49.17434277,-121.6777712,0.25999999
8.129,0.3567,-0.8439,0.0327,-0.0238,0.7919,1.6096,-0.2344,1.1697,0.3878,849.196,-15.48,53.4,70.5,3,80.027,67.002,-84.766,49.17434277,-121.6777712,0.25999999
8.165,0.3445,-0.819,0.0664,-0.0238,0.7919,1.6096,-0.2344,1.1697,0.3878,849.196,-15.48,53.4,70.5,3,75.012,66.812,-79.091,49.17434277,-121.6777712,0.25999999
8.169,0.3445,-0.819,0.0664,-0.0238,0.7919,1.6096,-0.2344,1.1697,0.3878,849.196,-16.02,53.16,71.22,3,75.506,66.812,-79.091,49.17434277,-121.6777712,0.25999999
8.172,0.3445,-0.819,0.0664,-0.0238,0.7919,1.6096,-0.0905,1.5564,0.3569,849.196,-16.02,53.16,71.22,3,75.506,66.812,-79.091,49.17434277,-121.6777712,0.25999999
8.185,0.3445,-0.819,0.0664,-0.1054,1.0992,1.5356,-0.0905,1.5564,0.3569,849.196,-16.02,53.16,71.22,3,75.506,66.812,-79.091,49.17434277,-121.6777712,0.25999999
8.227,0.4573,-0.7838,0.1426,-0.1054,1.0992,1.5356,-0.0905,1.5564,0.3569,849.196,-16.02,53.16,71.22,3,65.758,58.566,-72.681,49.17434277,-121.6777712,0.25999999
8.23,0.4573,-0.7838,0.1426,-0.1054,1.0992,1.5356,-0.0905,1.5564,0.3569,849.196,-16.56,52.98,71.88,3,66.227,58.566,-72.681,49.17434277,-121.6777712,0.25999999
8.233,0.4573,-0.7838,0.1426,-0.1054,1.0992,1.5356,-0.0905,1.6607,0.1811,849.196,-16.56,52.98,71.88,3,66.227,58.566,-72.681,49.17434277,-121.6777712,0.25999999
8.237,0.4573,-0.7838,0.1426,-0.1054,1.0992,1.5356,-0.0905,1.6607,0.1811,849.1865,-16.56,52.98,71.88,3,66.227,58.566,-72.681,49.17434277,-121.6777712,0.25999999
8.24,0.4573,-0.7838,0.1426,-0.1054,1.0992,1.5356,-0.0905,1.6607,0.1811,849.1865,-16.56,52.98,71.88,3,66.227,58.566,-72.681,49.17434277,-121.6777712,0.25999999
8.249,0.4573,-0.7838,0.1426,0.9001,1.4368,1.8468,-0.0905,1.6607,0.1811,849.1865,-16.56,52.98,71.88,3,66.227,58.566,-72.681,49.17434277,-121.6777712,0.25999999
8.284,0.7021,-0.8752,0.2506,0.9001,1.4368,1.8468,-0.0905,1.6607,0.1811,849.1865,-16.56,52.98,71.88,3,60.842,49.574,-70.358,49.17434277,-121.6777712,0.25999999
8.287,0.7021,-0.8752,0.2506,0.9001,1.4368,1.8468,-0.0905,1.6607,0.1811,849.1865,-16.98,52.8,72.48,3,61.232,49.574,-70.358,49.17434277,-121.6777712,0.25999999
8.289,0.7021,-0.8752,0.2506,0.9001,1.4368,1.8468,0.0554,0.8107,0.1758,849.1865,-16.98,52.8,72.48,3,61.232,49.574,-70.358,49.17434277,-121.6777712,0.25999999
8.304,0.7021,-0.8752,0.2506,3.1593,0.4963,2.4974,0.0554,0.8107,0.1758,849.1865,-16.98,52.8,72.48,3,61.232,49.574,-70.358,49.17434277,-121.6777712,0.25999999
8.35,0.4788,-1.0017,-0.3416,3.1593,0.4963,2.4974,0.0554,0.8107,0.1758,849.1865,-16.98,52.8,72.48,3,113.612,59.579,-125.504,49.17434277,-121.6777712,0.25999999
8.357,0.4788,-1.0017,-0.3416,3.1593,0.4963,2.4974,0.0554,0.8107,0.1758,849.1865,-17.34,52.68,72.96,3,114.073,59.579,-125.504,49.17434277,-121.6777712,0.25999999
8.367,0.4788,-1.0017,-0.3416,3.1593,0.4963,2.4974,0.506,1.0482,0.8053,849.1865,-17.34,52.68,72.96,3,114.073,59.579,-125.504,49.17434277,-121.6777712,0.25999999
8.375,0.4788,-1.0017,-0.3416,1.3056,-0.6162,-3.5612,0.506,1.0482,0.8053,849.1865,-17.34,52.68,72.96,3,114.073,59.579,-125.504,49.17434277,-121.6777712,0.25999999
8.404,0.7989,-1.2519,-0.348,1.3056,-0.6162,-3.5612,0.506,1.0482,0.8053,849.1865,-17.34,52.68,72.96,3,96.531,55.16,-113.536,49.17434277,-121.6777712,0.25999999
8.406,0.7989,-1.2519,-0.348,1.3056,-0.6162,-3.5612,0.506,1.0482,0.8053,849.1865,-17.4,52.56,73.26,3,96.703,55.16,-113.536,49.17434277,-121.6777712,0.25999999
8.408,0.7989,-1.2519,-0.348,1.3056,-0.6162,-3.5612,0.2067,1.3465,0.0117,849.1865,-17.4,52.56,73.26,3,96.703,55.16,-113.536,49.17434277,-121.6777712,0.25999999
8.409,0.7989,-1.2519,-0.348,1.3056,-0.6162,-3.5612,0.2067,1.3465,0.0117,849.2419,-17.4,52.56,73.26,3,96.703,55.16,-113.536,49.17434277,-121.6777712,0.25999999
8.411,0.7989,-1.2519,-0.348,1.3056,-0.6162,-3.5612,0.2067,1.3465,0.0117,849.2419,-17.4,52.56,73.26,3,96.703,55.16,-113.536,49.17434277,-121.6777712,0.25999999
8.421,0.7989,-1.2519,-0.348,4.21,-3.158,-3.6791,0.2067,1.3465,0.0117,849.2419,-17.4,52.56,73.26,3,96.703,55.16,-113.536,49.17434277,-121.6777712,0.25999999
8.467,0.6611,-1.074,-0.1691,4.21,-3.158,-3.6791,0.2067,1.3465,0.0117,849.2419,-17.4,52.56,73.26,3,91.175,57.57,-104.35,49.17434277,-121.6777712,0.25999999
8.472,0.6611,-1.074,-0.1691,4.21,-3.158,-3.6791,0.2067,1.3465,0.0117,849.2419,-17.22,52.44,73.32,3,91.113,57.57,-104.35,49.17434277,-121.6777712,0.25999999
8.477,0.6611,-1.074,-0.1691,4.21,-3.158,-3.6791,-0.3792,0.5646,0.3547,849.2419,-17.22,52.44,73.32,3,91.113,57.57,-104.35,49.17434277,-121.6777712,0.25999999
8.492,0.6611,-1.074,-0.1691,2.9183,-1.3881,-1.6812,-0.3792,0.5646,0.3547,849.2419,-17.22,52.44,73.32,3,91.113,57.57,-104.35,49.17434277,-121.6777712,0.25999999
8.525,0.3401,-0.817,-0.2141,2.9183,-1.3881,-1.6812,-0.3792,0.5646,0.3547,849.2419,-17.22,52.44,73.32,3,115.289,63.81,-122.19,49.17434277,-121.6777712,0.25999999
8.526,0.3401,-0.817,-0.2141,2.9183,-1.3881,-1.6812,-0.3792,0.5646,0.3547,849.2419,-16.8,52.38,73.38,3,114.942,63.81,-122.19,49.17434277,-121.6777712,0.25999999
8.528,0.3401,-0.817,-0.2141,2.9183,-1.3881,-1.6812,-0.3739,0.5412,-0.1385,849.2419,-16.8,52.38,73.38,3,114.942,63.81,-122.19,49.17434277,-121.6777712,0.25999999
8.542,0.3401,-0.817,-0.2141,-0.357,1.0773,-1.9096,-0.3739,0.5412,-0.1385,849.2419,-16.8,52.38,73.38,3,114.942,63.81,-122.19,49.17434277,-121.6777712,0.25999999
8.585,0.4305,-1.1542,0.2589,-0.357,1.0773,-1.9096,-0.3739,0.5412,-0.1385,849.2419,-16.8,52.38,73.38,3,59.357,66.48,-58.975,49.17434277,-121.6777712,0.25999999
8.587,0.4305,-1.1542,0.2589,-0.357,1.0773,-1.9096,-0.3739,0.5412,-0.1385,849.2419,-16.2,52.32,73.14,3,58.977,66.48,-58.975,49.17434277,-121.6777712,0.25999999
8.589,0.4305,-1.1542,0.2589,-0.357,1.0773,-1.9096,-0.8693,-0.0671,-0.6189,849.2419,-16.2,52.32,73.14,3,58.977,66.48,-58.975,49.17434277,-121.6777712,0.25999999
8.59,0.4305,-1.1542,0.2589,-0.357,1.0773,-1.9096,-0.8693,-0.0671,-0.6189,849.1631,-16.2,52.32,73.14,3,58.977,66.48,-58.975,49.17434277,-121.6777712,0.25999999
8.592,0.4305,-1.1542,0.2589,-0.357,1.0773,-1.9096,-0.8693,-0.0671,-0.6189,849.1631,-16.2,52.32,73.14,3,58.977,66.48,-58.975,49.17434277,-121.6777712,0.25999999
8.603,0.4305,-1.1542,0.2589,0.2386,-2.3587,2.9721,-0.8693,-0.0671,-0.6189,849.1631,-16.2,52.32,73.14,3,58.977,66.48,-58.975,49.17434277,-121.6777712,0.25999999
8.645,-0.0679,-0.6895,-0.4105,0.2386,-2.3587,2.9721,-0.8693,-0.0671,-0.6189,849.1631,-16.2,52.32,73.14,3,-139.321,58.891,170.605,49.17434277,-121.6777712,0.25999999
8.648,-0.0679,-0.6895,-0.4105,0.2386,-2.3587,2.9721,-0.8693,-0.0671,-0.6189,849.1631,-15.42,52.32,72.78,3,-140.002,58.891,170.605,49.17434277,-121.6777712,0.25999999
8.649,-0.0679,-0.6895,-0.4105,0.2386,-2.3587,2.9721,-0.7329,0.2354,-0.1119,849.1631,-15.42,52.32,72.78,3,-140.002,58.891,170.605,49.17434277,-121.6777712,0.25999999
8.662,-0.0679,-0.6895,-0.4105,-4.437,2.2387,-3.0109,-0.7329,0.2354,-0.1119,849.1631,-15.42,52.32,72.78,3,-140.002,58.891,170.605,49.17434277,-121.6777712,0.25999999
8.712,0.3928,-0.5468,-0.1295,-4.437,2.2387,-3.0109,-0.7329,0.2354,-0.1119,849.1631,-15.42,52.32,72.78,3,88.478,52.894,-108.25,49.17434277,-121.6777712,0.25999999
8.72,0.3928,-0.5468,-0.1295,-4.437,2.2387,-3.0109,-0.7329,0.2354,-0.1119,849.1631,-14.64,52.38,72.24,3,87.791,52.894,-108.25,49.17434277,-121.6777712,0.25999999
8.73,0.3928,-0.5468,-0.1295,-4.437,2.2387,-3.0109,0.9449,0.9513,-0.2184,849.1631,-14.64,52.38,72.24,3,87.791,52.894,-108.25,49.17434277,-121.6777712,0.25999999
8.736,0.3928,-0.5468,-0.1295,-0.1987,3.5696,-1.019,0.9449,0.9513,-0.2184,849.1631,-14.64,52.38,72.24,3,87.791,52.894,-108.25,49.17434277,-121.6777712,0.25999999
8.763,0.6469,-1.1786,0.063,-0.1987,3.5696,-1.019,0.9449,0.9513,-0.2184,849.1631,-14.64,52.38,72.24,3,75.718,61.124,-84.44,49.17434277,-121.6777712,0.25999999
8.764,0.6469,-1.1786,0.063,-0.1987,3.5696,-1.019,0.9449,0.9513,-0.2184,849.1631,-13.86,52.44,71.7,3,75.113,61.124,-84.44,49.17434277,-121.6777712,0.25999999
8.766,0.6469,-1.1786,0.063,-0.1987,3.5696,-1.019,1.191,-0.033,0.114,849.1631,-13.86,52.44,71.7,3,75.113,61.124,-84.44,49.17434277,-121.6777712,0.25999999
8.77,0.6469,-1.1786,0.063,-0.1987,3.5696,-1.019,1.191,-0.033,0.114,849.2961,-13.86,52.44,71.7,3,75.113,61.124,-84.44,49.17434277,-121.6777712,0.25999999
8.772,0.6469,-1.1786,0.063,-0.1987,3.5696,-1.019,1.191,-0.033,0.114,849.2961,-13.86,52.44,71.7,0,75.113,61.124,-84.44,49.17434277,-121.6777712,0.25999999
8.784,0.6469,-1.1786,0.063,2.3032,-2.6191,0.2851,1.191,-0.033,0.114,849.2961,-13.86,52.44,71.7,0,75.113,61.124,-84.44,49.17434277,-121.6777712,0.25999999
8.822,0.238,-1.3022,0.1035,2.3032,-2.6191,0.2851,1.191,-0.033,0.114,849.2961,-13.86,52.44,71.7,0,70.075,78.73,-66.488,49.17434277,-121.6777712,0.25999999
8.83,0.238,-1.3022,0.1035,2.3032,-2.6191,0.2851,1.191,-0.033,0.114,849.2961,-13.02,52.56,71.1,0,69.455,78.73,-66.488,49.17434277,-121.6777712,0.25999999
8.836,0.238,-1.3022,0.1035,2.3032,-2.6191,0.2851,-0.0756,-0.3004,0.2056,849.2961,-13.02,52.56,71.1,0,69.455,78.73,-66.488,49.17434277,-121.6777712,0.25999999
8.848,0.238,-1.3022,0.1035,-1.4112,-3.7018,0.7356,-0.0756,-0.3004,0.2056,849.2961,-13.02,52.56,71.1,0,69.455,78.73,-66.488,49.17434277,-121.6777712,0.25999999
8.882,0.0073,-0.9089,0.2223,-1.4112,-3.7018,0.7356,-0.0756,-0.3004,0.2056,849.2961,-13.02,52.56,71.1,0,10.722,76.251,-1.889,49.17434277,-121.6777712,0.25999999
8.884,0.0073,-0.9089,0.2223,-1.4112,-3.7018,0.7356,-0.0756,-0.3004,0.2056,849.2961,-12.18,52.62,70.44,0,10.207,76.251,-1.889,49.17434277,-121.6777712,0.25999999
8.885,0.0073,-0.9089,0.2223,-1.4112,-3.7018,0.7356,-1.1718,0.8298,-0.2876,849.2961,-12.18,52.62,70.44,0,10.207,76.251,-1.889,49.17434277,-121.6777712,0.25999999
8.901,0.0073,-0.9089,0.2223,-3.6046,0.1844,2.1696,-1.1718,0.8298,-0.2876,849.2961,-12.18,52.62,70.44,0,10.207,76.251,-1.889,49.17434277,-121.6777712,0.25999999
8.945,0.1549,-0.6739,0.1925,-3.6046,0.1844,2.1696,-1.1718,0.8298,-0.2876,849.2961,-12.18,52.62,70.44,0,40.661,69.867,-38.828,49.17434359,-121.6778158,0.5
8.948,0.1549,-0.6739,0.1925,-3.6046,0.1844,2.1696,-1.1718,0.8298,-0.2876,849.2961,-11.28,52.62,69.84,0,40.046,69.867,-38.828,49.17434359,-121.6778158,0.5
8.951,0.1549,-0.6739,0.1925,-3.6046,0.1844,2.1696,-0.7308,1.4743,-0.653,849.2961,-11.28,52.62,69.84,0,40.046,69.867,-38.828,49.17434359,-121.6778158,0.5
8.954,0.1549,-0.6739,0.1925,-3.6046,0.1844,2.1696,-0.7308,1.4743,-0.653,849.2131,-11.28,52.62,69.84,0,40.046,69.867,-38.828,49.17434359,-121.6778158,0.5
8.958,0.1549,-0.6739,0.1925,-3.6046,0.1844,2.1696,-0.7308,1.4743,-0.653,849.2131,-11.28,52.62,69.84,0,40.046,69.867,-38.828,49.17434359,-121.6778158,0.5
8.967,0.1549,-0.6739,0.1925,-2.436,2.3698,1.7864,-0.7308,1.4743,-0.653,849.2131,-11.28,52.62,69.84,0,40.046,69.867,-38.828,49.17434359,-121.6778158,0.5
9.005,0.513,-1.0647,0.0366,-2.436,2.3698,1.7864,-0.7308,1.4743,-0.653,849.2131,-11.28,52.62,69.84,0,76.26,64.216,-85.921,49.17434359,-121.6778158,0.5
9.009,0.513,-1.0647,0.0366,-2.436,2.3698,1.7864,-0.7308,1.4743,-0.653,849.2131,-10.44,52.68,69.18,0,75.553,64.216,-85.921,49.17434359,-121.6778158,0.5
9.012,0.513,-1.0647,0.0366,-2.436,2.3698,1.7864,0.0969,1.6022,-0.1736,849.2131,-10.44,52.68,69.18,0,75.553,64.216,-85.921,49.17434359,-121.6778158,0.5
9.022,0.513,-1.0647,0.0366,0.9809,-1.5171,-0.1638,0.0969,1.6022,-0.1736,849.2131,-10.44,52.68,69.18,0,75.553,64.216,-85.921,49.17434359,-121.6778158,0.5
9.066,0.6684,-1.1762,-0.0787,0.9809,-1.5171,-0.1638,0.0969,1.6022,-0.1736,849.2131,-10.44,52.68,69.18,0,81.453,60.22,-96.717,49.17434359,-121.6778158,0.5
9.069,0.6684,-1.1762,-0.0787,0.9809,-1.5171,-0.1638,0.0969,1.6022,-0.1736,849.2131,-9.66,52.74,68.52,0,80.739,60.22,-96.717,49.17434359,-121.6778158,0.5
9.072,0.6684,-1.1762,-0.0787,0.9809,-1.5171,-0.1638,-0.3782,1.2804,-0.1545,849.2131,-9.66,52.74,68.52,0,80.739,60.22,-96.717,49.17434359,-121.6778158,0.5
9.084,0.6684,-1.1762,-0.0787,2.3787,-2.6667,-1.2948,-0.3782,1.2804,-0.1545,849.2131,-9.66,52.74,68.52,0,80.739,60.22,-96.717,49.17434359,-121.6778158,0.5
9.126,0.6528,-1.0599,-0.1765,2.3787,-2.6667,-1.2948,-0.3782,1.2804,-0.1545,849.2131,-9.66,52.74,68.52,0,85.12,57.461,-105.126,49.17434359,-121.6778158,0.5
9.129,0.6528,-1.0599,-0.1765,2.3787,-2.6667,-1.2948,-0.3782,1.2804,-0.1545,849.2131,-8.94,52.68,67.86,0,84.456,57.461,-105.126,49.17434359,-121.6778158,0.5
9.133,0.6528,-1.0599,-0.1765,2.3787,-2.6667,-1.2948,-0.9108,0.996,-0.1715,849.2131,-8.94,52.68,67.86,0,84.456,57.461,-105.126,49.17434359,-121.6778158,0.5
9.136,0.6528,-1.0599,-0.1765,2.3787,-2.6667,-1.2948,-0.9108,0.996,-0.1715,849.1997,-8.94,52.68,67.86,0,84.456,57.461,-105.126,49.17434359,-121.6778158,0.5
9.14,0.6528,-1.0599,-0.1765,2.3787,-2.6667,-1.2948,-0.9108,0.996,-0.1715,849.1997,-8.94,52.68,67.86,0,84.456,57.461,-105.126,49.17434359,-121.6778158,0.5
9.144,0.6528,-1.0599,-0.1765,2.0649,-1.5901,-1.8772,-0.9108,0.996,-0.1715,849.1997,-8.94,52.68,67.86,0,84.456,57.461,-105.126,49.17434359,-121.6778158,0.5
9.183,0.5375,-0.9348,-0.1076,2.0649,-1.5901,-1.8772,-0.9108,0.996,-0.1715,849.1997,-8.94,52.68,67.86,0,83.311,59.614,-101.316,49.17434359,-121.6778158,0.5
9.189,0.5375,-0.9348,-0.1076,2.0649,-1.5901,-1.8772,-0.9108,0.996,-0.1715,849.1997,-8.16,52.68,67.26,0,82.598,59.614,-101.316,49.17434359,-121.6778158,0.5
9.195,0.5375,-0.9348,-0.1076,2.0649,-1.5901,-1.8772,-0.8288,0.6551,0.1577,849.1997,-8.16,52.68,67.26,0,82.598,59.614,-101.316,49.17434359,-121.6778158,0.5
9.208,0.5375,-0.9348,-0.1076,0.9589,-0.3531,-0.8732,-0.8288,0.6551,0.1577,849.1997,-8.16,52.68,67.26,0,82.598,59.614,-101.316,49.17434359,-121.6778158,0.5
9.241,0.3718,-0.7061,-0.0064,0.9589,-0.3531,-0.8732,-0.8288,0.6551,0.1577,849.1997,-8.16,52.68,67.26,0,76.345,62.225,-90.988,49.17434359,-121.6778158,0.5
9.243,0.3718,-0.7061,-0.0064,0.9589,-0.3531,-0.8732,-0.8288,0.6551,0.1577,849.1997,-7.5,52.68,66.72,0,75.761,62.225,-90.988,49.17434359,-121.6778158,0.5
9.245,0.3718,-0.7061,-0.0064,0.9589,-0.3531,-0.8732,-0.9161,0.588,0.1875,849.1997,-7.5,52.68,66.72,0,75.761,62.225,-90.988,49.17434359,-121.6778158,0.5
9.26,0.3718,-0.7061,-0.0064,-0.6082,1.9038,0.4199,-0.9161,0.588,0.1875,849.1997,-7.5,52.68,66.72,0,75.761,62.225,-90.988,49.17434359,-121.6778158,0.5
9.309,0.3347,-0.4476,0.1084,-0.6082,1.9038,0.4199,-0.9161,0.588,0.1875,849.1997,-7.5,52.68,66.72,0,56.764,51.834,-72.053,49.17434359,-121.6778158,0.5
9.316,0.3347,-0.4476,0.1084,-0.6082,1.9038,0.4199,-0.9161,0.588,0.1875,849.1997,-6.84,52.62,66.24,0,56.291,51.834,-72.053,49.17434359,-121.6778158,0.5
9.325,0.3347,-0.4476,0.1084,-0.6082,1.9038,0.4199,-0.8362,0.8671,0.1374,849.1997,-6.84,52.62,66.24,0,56.291,51.834,-72.053,49.17434359,-121.6778158,0.5
9.331,0.3347,-0.4476,0.1084,-0.6082,1.9038,0.4199,-0.8362,0.8671,0.1374,849.2393,-6.84,52.62,66.24,0,56.291,51.834,-72.053,49.17434359,-121.6778158,0.5
9.338,0.3347,-0.4476,0.1084,-0.6082,1.9038,0.4199,-0.8362,0.8671,0.1374,849.2393,-6.84,52.62,66.24,0,56.291,51.834,-72.053,49.17434359,-121.6778158,0.5
9.345,0.3347,-0.4476,0.1084,-1.0135,4.41,1.6563,-0.8362,0.8671,0.1374,849.2393,-6.84,52.62,66.24,0,56.291,51.834,-72.053,49.17434359,-121.6778158,0.5
9.361,0.4837,-0.4217,0.0771,-1.0135,4.41,1.6563,-0.8362,0.8671,0.1374,849.2393,-6.84,52.62,66.24,0,57.551,40.727,-80.939,49.17434359,-121.6778158,0.5
9.364,0.4837,-0.4217,0.0771,-1.0135,4.41,1.6563,-0.8362,0.8671,0.1374,849.2393,-6.48,52.56,66.06,0,57.356,40.727,-80.939,49.17434359,-121.6778158,0.5
9.366,0.4837,-0.4217,0.0771,-1.0135,4.41,1.6563,-0.2919,1.1526,-0.0043,849.2393,-6.48,52.56,66.06,0,57.356,40.727,-80.939,49.17434359,-121.6778158,0.5
9.38,0.4837,-0.4217,0.0771,0.241,4.5727,1.1243,-0.2919,1.1526,-0.0043,849.2393,-6.48,52.56,66.06,0,57.356,40.727,-80.939,49.17434359,-121.6778158,0.5
9.429,0.6714,-0.7828,-0.0743,0.241,4.5727,1.1243,-0.2919,1.1526,-0.0043,849.2393,-6.48,52.56,66.06,0,69.753,49.211,-96.318,49.17434359,-121.6778158,0.5
9.446,0.6714,-0.7828,-0.0743,0.241,4.5727,1.1243,-0.2919,1.1526,-0.0043,849.2393,-6.24,52.56,66.18,0,69.662,49.211,-96.318,49.17434359,-121.6778158,0.5
9.447,0.6714,-0.7828,-0.0743,0.241,4.5727,1.1243,0.2322,0.995,-0.0096,849.2393,-6.24,52.56,66.18,0,69.662,49.211,-96.318,49.17434359,-121.6778158,0.5
9.449,0.6714,-0.7828,-0.0743,1.9078,0.9508,-0.7039,0.2322,0.995,-0.0096,849.2393,-6.24,52.56,66.18,0,69.662,49.211,-96.318,49.17434359,-121.6778158,0.5
9.486,0.6279,-1.1185,-0.2986,1.9078,0.9508,-0.7039,0.2322,0.995,-0.0096,849.2393,-6.24,52.56,66.18,0,91.182,58.135,-115.435,49.17434359,-121.6778158,0.5
9.488,0.6279,-1.1185,-0.2986,1.9078,0.9508,-0.7039,0.2322,0.995,-0.0096,849.2393,-6.06,52.56,66.36,0,91.105,58.135,-115.435,49.17434359,-121.6778158,0.5
9.49,0.6279,-1.1185,-0.2986,1.9078,0.9508,-0.7039,0.0597,0.4996,-0.0224,849.2393,-6.06,52.56,66.36,0,91.105,58.135,-115.435,49.17434359,-121.6778158,0.5
9.491,0.6279,-1.1185,-0.2986,1.9078,0.9508,-0.7039,0.0597,0.4996,-0.0224,849.1301,-6.06,52.56,66.36,0,91.105,58.135,-115.435,49.17434359,-121.6778158,0.5
9.493,0.6279,-1.1185,-0.2986,1.9078,0.9508,-0.7039,0.0597,0.4996,-0.0224,849.1301,-6.06,52.56,66.36,0,91.105,58.135,-115.435,49.17434359,-121.6778158,0.5
9.499,0.6279,-1.1185,-0.2986,1.4448,-2.3592,-2.8509,0.0597,0.4996,-0.0224,849.1301,-6.06,52.56,66.36,0,91.105,58.135,-115.435,49.17434359,-121.6778158,0.5
9.54,0.5228,-0.8561,-0.0069,1.4448,-2.3592,-2.8509,0.0597,0.4996,-0.0224,849.1301,-6.06,52.56,66.36,0,72.045,58.586,-90.756,49.17434359,-121.6778158,0.5
9.541,0.5228,-0.8561,-0.0069,1.4448,-2.3592,-2.8509,0.0597,0.4996,-0.0224,849.1301,-5.94,52.62,66.72,0,72.035,58.586,-90.756,49.17434359,-121.6778158,0.5
9.544,0.5228,-0.8561,-0.0069,1.4448,-2.3592,-2.8509,-0.4655,0.2194,-0.0011,849.1301,-5.94,52.62,66.72,0,72.035,58.586,-90.756,49.17434359,-121.6778158,0.5
9.561,0.5228,-0.8561,-0.0069,0.3846,0.192,0.1819,-0.4655,0.2194,-0.0011,849.1301,-5.94,52.62,66.72,0,72.035,58.586,-90.756,49.17434359,-121.6778158,0.5
9.602,0.4241,-0.7574,0.0903,0.3846,0.192,0.1819,-0.4655,0.2194,-0.0011,849.1301,-5.94,52.62,66.72,0,63.492,60.208,-77.976,49.17434359,-121.6778158,0.5
9.608,0.4241,-0.7574,0.0903,0.3846,0.192,0.1819,-0.4655,0.2194,-0.0011,849.1301,-5.82,52.62,67.14,0,63.502,60.208,-77.976,49.17434359,-121.6778158,0.5
9.611,0.4241,-0.7574,0.0903,0.3846,0.192,0.1819,-0.3302,0.179,-0.0533,849.1301,-5.82,52.62,67.14,0,63.502,60.208,-77.976,49.17434359,-121.6778158,0.5
9.62,0.4241,-0.7574,0.0903,-0.6238,1.1357,1.1608,-0.3302,0.179,-0.0533,849.1301,-5.82,52.62,67.14,0,63.502,60.208,-77.976,49.17434359,-121.6778158,0.5
9.665,0.3924,-0.8879,-0.0304,-0.6238,1.1357,1.1608,-0.3302,0.179,-0.0533,849.1301,-5.82,52.62,67.14,0,80.37,66.096,-94.424,49.17434359,-121.6778158,0.5
9.672,0.3924,-0.8879,-0.0304,-0.6238,1.1357,1.1608,-0.3302,0.179,-0.0533,849.1301,-5.64,52.68,67.56,0,80.299,66.096,-94.424,49.17434359,-121.6778158,0.5
9.684,0.3924,-0.8879,-0.0304,-0.6238,1.1357,1.1608,-0.3174,0.5198,-0.1566,849.1301,-5.64,52.68,67.56,0,80.299,66.096,-94.424,49.17434359,-121.6778158,0.5
9.69,0.3924,-0.8879,-0.0304,-0.6238,1.1357,1.1608,-0.3174,0.5198,-0.1566,849.2056,-5.64,52.68,67.56,0,80.299,66.096,-94.424,49.17434359,-121.6778158,0.5
9.695,0.3924,-0.8879,-0.0304,-0.6238,1.1357,1.1608,-0.3174,0.5198,-0.1566,849.2056,-5.64,52.68,67.56,0,80.299,66.096,-94.424,49.17434359,-121.6778158,0.5
9.697,0.3924,-0.8879,-0.0304,-0.9741,-0.1649,-0.0169,-0.3174,0.5198,-0.1566,849.2056,-5.64,52.68,67.56,0,80.299,66.096,-94.424,49.17434359,-121.6778158,0.5
9.719,0.6054,-0.9802,0.0029,-0.9741,-0.1649,-0.0169,-0.3174,0.5198,-0.1566,849.2056,-5.64,52.68,67.56,0,71.088,58.3,-89.728,49.17434359,-121.6778158,0.5
9.721,0.6054,-0.9802,0.0029,-0.9741,-0.1649,-0.0169,-0.3174,0.5198,-0.1566,849.2056,-5.4,52.74,68.04,0,71.032,58.3,-89.728,49.17434359,-121.6778158,0.5
9.723,0.6054,-0.9802,0.0029,-0.9741,-0.1649,-0.0169,-0.1438,0.391,-0.0788,849.2056,-5.4,52.74,68.04,0,71.032,58.3,-89.728,49.17434359,-121.6778158,0.5
9.741,0.6054,-0.9802,0.0029,1.0355,-1.1131,0.2619,-0.1438,0.391,-0.0788,849.2056,-5.4,52.74,68.04,0,71.032,58.3,-89.728,49.17434359,-121.6778158,0.5
9.779,0.5145,-0.924,0.0258,1.0355,-1.1131,0.2619,-0.1438,0.391,-0.0788,849.2056,-5.4,52.74,68.04,0,70.656,60.86,-87.125,49.17434359,-121.6778158,0.5
9.782,0.5145,-0.924,0.0258,1.0355,-1.1131,0.2619,-0.1438,0.391,-0.0788,849.2056,-5.16,52.86,68.58,0,70.577,60.86,-87.125,49.17434359,-121.6778158,0.5
9.787,0.5145,-0.924,0.0258,1.0355,-1.1131,0.2619,0.179,-0.147,0.1779,849.2056,-5.16,52.86,68.58,0,70.577,60.86,-87.125,49.17434359,-121.6778158,0.5
9.799,0.5145,-0.924,0.0258,0.2146,-0.5205,0.3865,0.179,-0.147,0.1779,849.2056,-5.16,52.86,68.58,0,70.577,60.86,-87.125,49.17434359,-121.6778158,0.5
9.84,0.2985,-0.9133,0.0376,0.2146,-0.5205,0.3865,0.179,-0.147,0.1779,849.2056,-5.16,52.86,68.58,0,73.912,71.765,-82.829,49.17434359,-121.6778158,0.5
9.841,0.2985,-0.9133,0.0376,0.2146,-0.5205,0.3865,0.179,-0.147,0.1779,849.2056,-4.98,53.04,69.18,0,73.812,71.765,-82.829,49.17434359,-121.6778158,0.5
