
time,gFx,gFy,gFz,ax,ay,az,wx,wy,wz,p,Bx,By,Bz,Azimuth,Pitch,Roll,Latitude,Longitude,Speed (m/s),
0.0070,0.5223,0.3122,0.7729,-0.1592,-0.6946,-1.9551,-0.1609,0.3430,0.2184,849.4482,13.0200,-13.4400,-37.7400,-99.141,-18.502,-34.050,0.00000000,0.00000000,0.00000000,
0.0090,0.5223,0.3122,0.7729,-0.1592,-0.6946,-1.9551,-0.1609,0.3430,0.2184,849.4482,13.0200,-13.4400,-37.7400,-99.141,-18.502,-34.050,0.00000000,0.00000000,0.00000000,
0.0200,0.5223,0.3122,0.7729,0.9556,-0.2074,-0.6817,-0.1609,0.3430,0.2184,849.4482,13.0200,-13.4400,-37.7400,-99.141,-18.502,-34.050,0.00000000,0.00000000,0.00000000,
0.0380,0.3880,0.3161,0.9332,0.9556,-0.2074,-0.6817,-0.1609,0.3430,0.2184,849.4482,13.0200,-13.4400,-37.7400,-98.405,-17.367,-22.574,0.00000000,0.00000000,0.00000000,
0.0400,0.3880,0.3161,0.9332,0.9556,-0.2074,-0.6817,-0.1609,0.3430,0.2184,849.4482,12.5400,-12.9600,-37.7400,-97.440,-17.367,-22.574,0.00000000,0.00000000,0.00000000,
0.0410,0.3880,0.3161,0.9332,0.9556,-0.2074,-0.6817,-0.0799,0.4730,0.2780,849.4482,12.5400,-12.9600,-37.7400,-97.440,-17.367,-22.574,0.00000000,0.00000000,0.00000000,
0.0770,0.3880,0.3161,0.9332,-0.1398,-0.0681,0.7422,-0.0799,0.4730,0.2780,849.4482,12.5400,-12.9600,-37.7400,-97.440,-17.367,-22.574,0.00000000,0.00000000,0.00000000,
0.0990,0.4920,0.3341,0.8531,-0.1398,-0.0681,0.7422,-0.0799,0.4730,0.2780,849.4482,12.5400,-12.9600,-37.7400,-97.251,-18.743,-29.976,0.00000000,0.00000000,0.00000000,
0.1010,0.4920,0.3341,0.8531,-0.1398,-0.0681,0.7422,-0.0799,0.4730,0.2780,849.4482,12.1200,-12.6000,-37.8000,-96.516,-18.743,-29.976,0.00000000,0.00000000,0.00000000,
0.1030,0.4920,0.3341,0.8531,-0.1398,-0.0681,0.7422,0.1236,0.1854,0.0607,849.4482,12.1200,-12.6000,-37.8000,-96.516,-18.743,-29.976,0.00000000,0.00000000,0.00000000,
0.1360,0.4920,0.3341,0.8531,0.9452,0.0513,-0.0514,0.1236,0.1854,0.0607,849.4482,12.1200,-12.6000,-37.8000,-96.516,-18.743,-29.976,0.00000000,0.00000000,0.00000000,
0.1590,0.4544,0.2990,0.8785,0.9452,0.0513,-0.0514,0.1236,0.1854,0.0607,849.4482,12.1200,-12.6000,-37.8000,-98.007,-16.819,-27.352,0.00000000,0.00000000,0.00000000,
0.1630,0.4544,0.2990,0.8785,0.9452,0.0513,-0.0514,0.1236,0.1854,0.0607,849.4482,11.7600,-12.2400,-37.7400,-97.343,-16.819,-27.352,0.00000000,0.00000000,0.00000000,
0.1650,0.4544,0.2990,0.8785,0.9452,0.0513,-0.0514,0.1055,0.2482,-0.0234,849.4482,11.7600,-12.2400,-37.7400,-97.343,-16.819,-27.352,0.00000000,0.00000000,0.00000000,
0.1750,0.4544,0.2990,0.8785,0.9452,0.0513,-0.0514,0.1055,0.2482,-0.0234,849.3003,11.7600,-12.2400,-37.7400,-97.343,-16.819,-27.352,0.00000000,0.00000000,0.00000000,
0.1780,0.4544,0.2990,0.8785,0.9452,0.0513,-0.0514,0.1055,0.2482,-0.0234,849.3003,11.7600,-12.2400,-37.7400,-97.343,-16.819,-27.352,0.00000000,0.00000000,0.00000000,
0.2020,0.4544,0.2990,0.8785,0.6793,-0.3667,0.1792,0.1055,0.2482,-0.0234,849.3003,11.7600,-12.2400,-37.7400,-97.343,-16.819,-27.352,0.00000000,0.00000000,0.00000000,
0.2250,0.3845,0.3366,0.8413,0.6793,-0.3667,0.1792,0.1055,0.2482,-0.0234,849.3003,11.7600,-12.2400,-37.7400,-93.118,-19.995,-24.563,0.00000000,0.00000000,0.00000000,
0.2320,0.3845,0.3366,0.8413,0.6793,-0.3667,0.1792,0.1055,0.2482,-0.0234,849.3003,11.5200,-12.0000,-37.7400,-92.576,-19.995,-24.563,0.00000000,0.00000000,0.00000000,
0.2360,0.3845,0.3366,0.8413,0.6793,-0.3667,0.1792,0.0405,0.1289,-0.0064,849.3003,11.5200,-12.0000,-37.7400,-92.576,-19.995,-24.563,0.00000000,0.00000000,0.00000000,
0.2560,0.3845,0.3366,0.8413,0.0425,0.0033,-0.2065,0.0405,0.1289,-0.0064,849.3003,11.5200,-12.0000,-37.7400,-92.576,-19.995,-24.563,0.00000000,0.00000000,0.00000000,
0.2800,0.3122,0.3527,0.7426,0.0425,0.0033,-0.2065,0.0405,0.1289,-0.0064,849.3003,11.5200,-12.0000,-37.7400,-87.346,-23.645,-22.803,0.00000000,0.00000000,0.00000000,
0.2810,0.3122,0.3527,0.7426,0.0425,0.0033,-0.2065,0.0405,0.1289,-0.0064,849.3003,11.2200,-11.8200,-37.7400,-86.833,-23.645,-22.803,0.00000000,0.00000000,0.00000000,
0.2820,0.3122,0.3527,0.7426,0.0425,0.0033,-0.2065,0.2439,0.5561,-0.0394,849.3003,11.2200,-11.8200,-37.7400,-86.833,-23.645,-22.803,0.00000000,0.00000000,0.00000000,
0.3150,0.3122,0.3527,0.7426,-0.3890,0.0114,-1.2314,0.2439,0.5561,-0.0394,849.3003,11.2200,-11.8200,-37.7400,-86.833,-23.645,-22.803,0.00000000,0.00000000,0.00000000,
0.3410,0.2834,0.3229,0.8760,-0.3890,0.0114,-1.2314,0.2439,0.5561,-0.0394,849.3003,11.2200,-11.8200,-37.7400,-91.062,-19.327,-17.927,0.00000000,0.00000000,0.00000000,
0.3420,0.2834,0.3229,0.8760,-0.3890,0.0114,-1.2314,0.2439,0.5561,-0.0394,849.3003,11.0400,-11.7000,-37.7400,-90.729,-19.327,-17.927,0.00000000,0.00000000,0.00000000,
0.3430,0.2834,0.3229,0.8760,-0.3890,0.0114,-1.2314,0.2908,0.4016,0.0415,849.3003,11.0400,-11.7000,-37.7400,-90.729,-19.327,-17.927,0.00000000,0.00000000,0.00000000,
0.3560,0.2834,0.3229,0.8760,-0.3890,0.0114,-1.2314,0.2908,0.4016,0.0415,849.4038,11.0400,-11.7000,-37.7400,-90.729,-19.327,-17.927,0.00000000,0.00000000,0.00000000,
0.3580,0.2834,0.3229,0.8760,-0.3890,0.0114,-1.2314,0.2908,0.4016,0.0415,849.4038,11.0400,-11.7000,-37.7400,-90.729,-19.327,-17.927,0.00000000,0.00000000,0.00000000,
0.3760,0.2834,0.3229,0.8760,-0.4150,-0.4330,0.0388,0.2908,0.4016,0.0415,849.4038,11.0400,-11.7000,-37.7400,-90.729,-19.327,-17.927,0.00000000,0.00000000,0.00000000,
0.4000,0.1510,0.3991,0.7719,-0.4150,-0.4330,0.0388,0.2908,0.4016,0.0415,849.4038,11.0400,-11.7000,-37.7400,-73.464,-26.905,-11.067,0.00000000,0.00000000,0.00000000,
0.4020,0.1510,0.3991,0.7719,-0.4150,-0.4330,0.0388,0.2908,0.4016,0.0415,849.4038,10.9800,-11.5800,-37.8000,-73.018,-26.905,-11.067,0.00000000,0.00000000,0.00000000,
0.4040,0.1510,0.3991,0.7719,-0.4150,-0.4330,0.0388,0.1672,1.3263,0.7563,849.4038,10.9800,-11.5800,-37.8000,-73.018,-26.905,-11.067,0.00000000,0.00000000,0.00000000,
0.4350,0.1510,0.3991,0.7719,-1.0791,0.3358,-1.2006,0.1672,1.3263,0.7563,849.4038,10.9800,-11.5800,-37.8000,-73.018,-26.905,-11.067,0.00000000,0.00000000,0.00000000,
0.4580,0.2355,0.3425,0.7627,-1.0791,0.3358,-1.2006,0.1672,1.3263,0.7563,849.4038,10.9800,-11.5800,-37.8000,-83.879,-23.221,-17.161,0.00000000,0.00000000,0.00000000,
0.4600,0.2355,0.3425,0.7627,-1.0791,0.3358,-1.2006,0.1672,1.3263,0.7563,849.4038,11.1600,-11.5200,-37.8000,-83.838,-23.221,-17.161,0.00000000,0.00000000,0.00000000,
0.4630,0.2355,0.3425,0.7627,-1.0791,0.3358,-1.2006,-0.2258,2.0197,1.6000,849.4038,11.1600,-11.5200,-37.8000,-83.838,-23.221,-17.161,0.00000000,0.00000000,0.00000000,
0.4960,0.2355,0.3425,0.7627,0.5224,0.1398,-1.6164,-0.2258,2.0197,1.6000,849.4038,11.1600,-11.5200,-37.8000,-83.838,-23.221,-17.161,0.00000000,0.00000000,0.00000000,
0.5180,0.2575,0.2423,1.0436,0.5224,0.1398,-1.6164,-0.2258,2.0197,1.6000,849.4038,11.1600,-11.5200,-37.8000,-100.694,-12.702,-13.860,0.00000000,0.00000000,0.00000000,
0.5200,0.2575,0.2423,1.0436,0.5224,0.1398,-1.6164,-0.2258,2.0197,1.6000,849.4038,11.5800,-11.4000,-37.8600,-100.183,-12.702,-13.860,0.00000000,0.00000000,0.00000000,
0.5220,0.2575,0.2423,1.0436,0.5224,0.1398,-1.6164,0.3718,1.7087,1.2293,849.4038,11.5800,-11.4000,-37.8600,-100.183,-12.702,-13.860,0.00000000,0.00000000,0.00000000,
0.5360,0.2575,0.2423,1.0436,0.5224,0.1398,-1.6164,0.3718,1.7087,1.2293,849.3237,11.5800,-11.4000,-37.8600,-100.183,-12.702,-13.860,0.00000000,0.00000000,0.00000000,
0.5380,0.2575,0.2423,1.0436,0.5224,0.1398,-1.6164,0.3718,1.7087,1.2293,849.3237,11.5800,-11.4000,-37.8600,-100.183,-12.702,-13.860,0.00000000,0.00000000,0.00000000,
0.5560,0.2575,0.2423,1.0436,1.3099,-0.9307,1.0746,0.3718,1.7087,1.2293,849.3237,11.5800,-11.4000,-37.8600,-100.183,-12.702,-13.860,0.00000000,0.00000000,0.00000000,
0.5870,0.1950,0.3190,0.9557,1.3099,-0.9307,1.0746,0.3718,1.7087,1.2293,849.3237,11.5800,-11.4000,-37.8600,-90.070,-18.111,-11.530,0.00000000,0.00000000,0.00000000,
0.5910,0.1950,0.3190,0.9557,1.3099,-0.9307,1.0746,0.3718,1.7087,1.2293,849.3237,12.3600,-11.5200,-37.8600,-90.540,-18.111,-11.530,0.00000000,0.00000000,0.00000000,
0.5960,0.1950,0.3190,0.9557,1.3099,-0.9307,1.0746,0.8011,1.2432,0.9236,849.3237,12.3600,-11.5200,-37.8600,-90.540,-18.111,-11.530,0.00000000,0.00000000,0.00000000,
0.6190,0.1950,0.3190,0.9557,1.1002,-0.5111,0.2945,0.8011,1.2432,0.9236,849.3237,12.3600,-11.5200,-37.8600,-90.540,-18.111,-11.530,0.00000000,0.00000000,0.00000000,
0.6450,0.1119,0.3830,0.8853,1.1002,-0.5111,0.2945,0.8011,1.2432,0.9236,849.3237,12.3600,-11.5200,-37.8600,-77.993,-23.230,-7.203,0.00000000,0.00000000,0.00000000,
0.6580,0.1119,0.3830,0.8853,1.1002,-0.5111,0.2945,0.8011,1.2432,0.9236,849.3237,13.4400,-11.7600,-37.8000,-79.591,-23.230,-7.203,0.00000000,0.00000000,0.00000000,
0.6610,0.1119,0.3830,0.8853,1.1002,-0.5111,0.2945,0.1800,1.4093,0.7691,849.3237,13.4400,-11.7600,-37.8000,-79.591,-23.230,-7.203,0.00000000,0.00000000,0.00000000,
0.6760,0.1119,0.3830,0.8853,0.8270,0.0320,-0.3931,0.1800,1.4093,0.7691,849.3237,13.4400,-11.7600,-37.8000,-79.591,-23.230,-7.203,0.00000000,0.00000000,0.00000000,
0.7030,0.0640,0.4890,1.0060,0.8270,0.0320,-0.3931,0.1800,1.4093,0.7691,849.3237,13.4400,-11.7600,-37.8000,-70.780,-25.880,-3.641,0.00000000,0.00000000,0.00000000,
0.7060,0.0640,0.4890,1.0060,0.8270,0.0320,-0.3931,0.1800,1.4093,0.7691,849.3237,14.7600,-12.1200,-37.6800,-73.413,-25.880,-3.641,0.00000000,0.00000000,0.00000000,
0.7090,0.0640,0.4890,1.0060,0.8270,0.0320,-0.3931,-0.0320,0.9587,0.9151,849.3237,14.7600,-12.1200,-37.6800,-73.413,-25.880,-3.641,0.00000000,0.00000000,0.00000000,
0.7150,0.0640,0.4890,1.0060,0.8270,0.0320,-0.3931,-0.0320,0.9587,0.9151,849.3000,14.7600,-12.1200,-37.6800,-73.413,-25.880,-3.641,0.00000000,0.00000000,0.00000000,
0.7180,0.0640,0.4890,1.0060,0.8270,0.0320,-0.3931,-0.0320,0.9587,0.9151,849.3000,14.7600,-12.1200,-37.6800,-73.413,-25.880,-3.641,0.00000000,0.00000000,0.00000000,
0.7350,0.0640,0.4890,1.0060,0.6343,1.0491,0.7947,-0.0320,0.9587,0.9151,849.3000,14.7600,-12.1200,-37.6800,-73.413,-25.880,-3.641,0.00000000,0.00000000,0.00000000,
0.7620,-0.1080,0.2804,0.7768,0.6343,1.0491,0.7947,-0.0320,0.9587,0.9151,849.3000,14.7600,-12.1200,-37.6800,-78.986,-19.673,7.914,0.00000000,0.00000000,0.00000000,
0.7670,-0.1080,0.2804,0.7768,0.6343,1.0491,0.7947,-0.0320,0.9587,0.9151,849.3000,16.3200,-12.6000,-37.5000,-82.768,-19.673,7.914,0.00000000,0.00000000,0.00000000,
0.7720,-0.1080,0.2804,0.7768,0.6343,1.0491,0.7947,0.6498,1.3678,0.3835,849.3000,16.3200,-12.6000,-37.5000,-82.768,-19.673,7.914,0.00000000,0.00000000,0.00000000,
0.7940,-0.1080,0.2804,0.7768,-0.3602,-1.3032,-1.2905,0.6498,1.3678,0.3835,849.3000,16.3200,-12.6000,-37.5000,-82.768,-19.673,7.914,0.00000000,0.00000000,0.00000000,
0.8180,-0.1622,0.5389,0.5003,-0.3602,-1.3032,-1.2905,0.6498,1.3678,0.3835,849.3000,16.3200,-12.6000,-37.5000,-11.015,-45.697,17.966,0.00000000,0.00000000,0.00000000,
0.8220,-0.1622,0.5389,0.5003,-0.3602,-1.3032,-1.2905,0.6498,1.3678,0.3835,849.3000,18.0600,-13.2000,-37.3200,-15.694,-45.697,17.966,0.00000000,0.00000000,0.00000000,
0.8270,-0.1622,0.5389,0.5003,-0.3602,-1.3032,-1.2905,0.2120,0.2120,0.2610,849.3000,18.0600,-13.2000,-37.3200,-15.694,-45.697,17.966,0.00000000,0.00000000,0.00000000,
0.8580,-0.1622,0.5389,0.5003,-0.7585,0.9384,-3.8506,0.2120,0.2120,0.2610,849.3000,18.0600,-13.2000,-37.3200,-15.694,-45.697,17.966,0.00000000,0.00000000,0.00000000,
0.8890,-0.1305,0.4431,1.1531,-0.7585,0.9384,-3.8506,0.2120,0.2120,0.2610,849.3000,18.0600,-13.2000,-37.3200,-83.274,-20.900,6.455,0.00000000,0.00000000,0.00000000,
0.8970,-0.1305,0.4431,1.1531,-0.7585,0.9384,-3.8506,0.2120,0.2120,0.2610,849.3000,19.9200,-13.8600,-37.0200,-86.437,-20.900,6.455,0.00000000,0.00000000,0.00000000,
0.9000,-0.1305,0.4431,1.1531,-0.7585,0.9384,-3.8506,-0.0991,0.0874,0.5870,849.3000,19.9200,-13.8600,-37.0200,-86.437,-20.900,6.455,0.00000000,0.00000000,0.00000000,
0.9020,-0.1305,0.4431,1.1531,-0.7585,0.9384,-3.8506,-0.0991,0.0874,0.5870,849.5051,19.9200,-13.8600,-37.0200,-86.437,-20.900,6.455,0.00000000,0.00000000,0.00000000,
0.9030,-0.1305,0.4431,1.1531,-0.7585,0.9384,-3.8506,-0.0991,0.0874,0.5870,849.5051,19.9200,-13.8600,-37.0200,-86.437,-20.900,6.455,0.00000000,0.00000000,0.00000000,
0.9140,-0.1305,0.4431,1.1531,-0.5188,0.0999,2.4913,-0.0991,0.0874,0.5870,849.5051,19.9200,-13.8600,-37.0200,-86.437,-20.900,6.455,0.00000000,0.00000000,0.00000000,
0.9500,0.0660,0.5223,0.8164,-0.5188,0.0999,2.4913,-0.0991,0.0874,0.5870,849.5051,19.9200,-13.8600,-37.0200,-72.296,-32.523,-4.619,0.00000000,0.00000000,0.00000000,
0.9540,0.0660,0.5223,0.8164,-0.5188,0.0999,2.4913,-0.0991,0.0874,0.5870,849.5051,21.8400,-14.6400,-36.6600,-75.581,-32.523,-4.619,0.00000000,0.00000000,0.00000000,
0.9600,0.0660,0.5223,0.8164,-0.5188,0.0999,2.4913,-0.4293,-0.0820,1.0908,849.5051,21.8400,-14.6400,-36.6600,-75.581,-32.523,-4.619,0.00000000,0.00000000,0.00000000,
0.9770,0.0660,0.5223,0.8164,1.0215,0.9783,-0.8812,-0.4293,-0.0820,1.0908,849.5051,21.8400,-14.6400,-36.6600,-75.581,-32.523,-4.619,0.00000000,0.00000000,0.00000000,
1.0050,0.3606,0.2970,0.8506,1.0215,0.9783,-0.8812,-0.4293,-0.0820,1.0908,849.5051,21.8400,-14.6400,-36.6600,-100.238,-17.822,-22.973,0.00000000,0.00000000,0.00000000,
1.0120,0.3606,0.2970,0.8506,1.0215,0.9783,-0.8812,-0.4293,-0.0820,1.0908,849.5051,23.7600,-15.4800,-36.3000,-101.521,-17.822,-22.973,0.00000000,0.00000000,0.00000000,
1.0200,0.3606,0.2970,0.8506,1.0215,0.9783,-0.8812,-1.6821,-0.3814,0.6679,849.5051,23.7600,-15.4800,-36.3000,-101.521,-17.822,-22.973,0.00000000,0.00000000,0.00000000,
1.0400,0.3606,0.2970,0.8506,3.3054,-0.3179,-0.9211,-1.6821,-0.3814,0.6679,849.5051,23.7600,-15.4800,-36.3000,-101.521,-17.822,-22.973,0.00000000,0.00000000,0.00000000,
1.0680,0.2619,0.1705,1.3974,3.3054,-0.3179,-0.9211,-1.6821,-0.3814,0.6679,849.5051,23.7600,-15.4800,-36.3000,-111.186,-6.837,-10.615,0.00000000,0.00000000,0.00000000,
1.0720,0.2619,0.1705,1.3974,3.3054,-0.3179,-0.9211,-1.6821,-0.3814,0.6679,849.5051,25.6800,-16.2600,-35.8800,-111.442,-6.837,-10.615,0.00000000,0.00000000,0.00000000,
1.0780,0.2619,0.1705,1.3974,3.3054,-0.3179,-0.9211,-2.2339,-1.7321,1.1494,849.5051,25.6800,-16.2600,-35.8800,-111.442,-6.837,-10.615,0.00000000,0.00000000,0.00000000,
1.0810,0.2619,0.1705,1.3974,3.3054,-0.3179,-0.9211,-2.2339,-1.7321,1.1494,849.5132,25.6800,-16.2600,-35.8800,-111.442,-6.837,-10.615,0.00000000,0.00000000,0.00000000,
1.0860,0.2619,0.1705,1.3974,3.3054,-0.3179,-0.9211,-2.2339,-1.7321,1.1494,849.5132,25.6800,-16.2600,-35.8800,-111.442,-6.837,-10.615,0.00000000,0.00000000,0.00000000,
1.0970,0.2619,0.1705,1.3974,1.1831,-0.2251,4.1725,-2.2339,-1.7321,1.1494,849.5132,25.6800,-16.2600,-35.8800,-111.442,-6.837,-10.615,0.00000000,0.00000000,0.00000000,
1.1210,0.1598,0.1866,1.1106,1.1831,-0.2251,4.1725,-2.2339,-1.7321,1.1494,849.5132,25.6800,-16.2600,-35.8800,-109.505,-9.442,-8.187,0.00000000,0.00000000,0.00000000,
1.1240,0.1598,0.1866,1.1106,1.1831,-0.2251,4.1725,-2.2339,-1.7321,1.1494,849.5132,27.4800,-16.9800,-35.5800,-109.797,-9.442,-8.187,0.00000000,0.00000000,0.00000000,
1.1270,0.1598,0.1866,1.1106,1.1831,-0.2251,4.1725,-0.8085,-0.5135,0.3324,849.5132,27.4800,-16.9800,-35.5800,-109.797,-9.442,-8.187,0.00000000,0.00000000,0.00000000,
1.1560,0.1598,0.1866,1.1106,-0.1113,0.4102,1.3259,-0.8085,-0.5135,0.3324,849.5132,27.4800,-16.9800,-35.5800,-109.797,-9.442,-8.187,0.00000000,0.00000000,0.00000000,
1.1820,0.2086,0.1426,1.0485,-0.1113,0.4102,1.3259,-0.8085,-0.5135,0.3324,849.5132,27.4800,-16.9800,-35.5800,-110.874,-7.598,-11.254,0.00000000,0.00000000,0.00000000,
1.1850,0.2086,0.1426,1.0485,-0.1113,0.4102,1.3259,-0.8085,-0.5135,0.3324,849.5132,28.9800,-17.3400,-35.3400,-110.709,-7.598,-11.254,0.00000000,0.00000000,0.00000000,
1.1880,0.2086,0.1426,1.0485,-0.1113,0.4102,1.3259,-0.3270,-2.4458,1.4402,849.5132,28.9800,-17.3400,-35.3400,-110.709,-7.598,-11.254,0.00000000,0.00000000,0.00000000,
1.2230,0.2086,0.1426,1.0485,-1.0851,0.3653,1.0390,-0.3270,-2.4458,1.4402,849.5132,28.9800,-17.3400,-35.3400,-110.709,-7.598,-11.254,0.00000000,0.00000000,0.00000000,
1.2420,0.0870,0.1128,0.9542,-1.0851,0.3653,1.0390,-0.3270,-2.4458,1.4402,849.5132,28.9800,-17.3400,-35.3400,-112.699,-6.715,-5.208,0.00000000,0.00000000,0.00000000,
1.2450,0.0870,0.1128,0.9542,-1.0851,0.3653,1.0390,-0.3270,-2.4458,1.4402,849.5132,30.0000,-17.4600,-35.2800,-112.276,-6.715,-5.208,0.00000000,0.00000000,0.00000000,
1.2480,0.0870,0.1128,0.9542,-1.0851,0.3653,1.0390,-0.7894,-2.2456,0.3100,849.5132,30.0000,-17.4600,-35.2800,-112.276,-6.715,-5.208,0.00000000,0.00000000,0.00000000,
1.2570,0.0870,0.1128,0.9542,-1.0851,0.3653,1.0390,-0.7894,-2.2456,0.3100,849.4839,30.0000,-17.4600,-35.2800,-112.276,-6.715,-5.208,0.00000000,0.00000000,0.00000000,
1.2600,0.0870,0.1128,0.9542,-1.0851,0.3653,1.0390,-0.7894,-2.2456,0.3100,849.4839,30.0000,-17.4600,-35.2800,-112.276,-6.715,-5.208,0.00000000,0.00000000,0.00000000,
1.2770,0.0870,0.1128,0.9542,-3.4431,0.5548,0.5525,-0.7894,-2.2456,0.3100,849.4839,30.0000,-17.4600,-35.2800,-112.276,-6.715,-5.208,0.00000000,0.00000000,0.00000000,
1.3060,0.3528,0.0742,1.0651,-3.4431,0.5548,0.5525,-0.7894,-2.2456,0.3100,849.4839,30.0000,-17.4600,-35.2800,-111.809,-3.784,-18.325,0.00000000,0.00000000,0.00000000,
1.3140,0.3528,0.0742,1.0651,-3.4431,0.5548,0.5525,-0.7894,-2.2456,0.3100,849.4839,30.3000,-17.3400,-35.3400,-111.512,-3.784,-18.325,0.00000000,0.00000000,0.00000000,
1.3190,0.3528,0.0742,1.0651,-3.4431,0.5548,0.5525,0.2557,-1.9036,-0.2312,849.4839,30.3000,-17.3400,-35.3400,-111.512,-3.784,-18.325,0.00000000,0.00000000,0.00000000,
1.3360,0.3528,0.0742,1.0651,-1.7551,-0.0233,2.1654,0.2557,-1.9036,-0.2312,849.4839,30.3000,-17.3400,-35.3400,-111.512,-3.784,-18.325,0.00000000,0.00000000,0.00000000,
1.3560,0.5116,0.0253,0.7128,-1.7551,-0.0233,2.1654,0.2557,-1.9036,-0.2312,849.4839,30.3000,-17.3400,-35.3400,-110.618,-1.655,-35.666,0.00000000,0.00000000,0.00000000,
1.3580,0.5116,0.0253,0.7128,-1.7551,-0.0233,2.1654,0.2557,-1.9036,-0.2312,849.4839,30.0000,-17.2200,-35.4000,-110.564,-1.655,-35.666,0.00000000,0.00000000,0.00000000,
1.3600,0.5116,0.0253,0.7128,-1.7551,-0.0233,2.1654,0.3015,-1.7108,0.1321,849.4839,30.0000,-17.2200,-35.4000,-110.564,-1.655,-35.666,0.00000000,0.00000000,0.00000000,
1.3960,0.5116,0.0253,0.7128,-0.9987,-0.5704,-0.7185,0.3015,-1.7108,0.1321,849.4839,30.0000,-17.2200,-35.4000,-110.564,-1.655,-35.666,0.00000000,0.00000000,0.00000000,
1.4220,0.7764,0.0122,0.6801,-0.9987,-0.5704,-0.7185,0.3015,-1.7108,0.1321,849.4839,30.0000,-17.2200,-35.4000,-110.352,-0.675,-48.783,0.00000000,0.00000000,0.00000000,
1.4250,0.7764,0.0122,0.6801,-0.9987,-0.5704,-0.7185,0.3015,-1.7108,0.1321,849.4839,29.4000,-17.0400,-35.3400,-110.328,-0.675,-48.783,0.00000000,0.00000000,0.00000000,
1.4280,0.7764,0.0122,0.6801,-0.9987,-0.5704,-0.7185,0.2131,-1.3987,-0.0746,849.4839,29.4000,-17.0400,-35.3400,-110.328,-0.675,-48.783,0.00000000,0.00000000,0.00000000,
1.4340,0.7764,0.0122,0.6801,-0.9987,-0.5704,-0.7185,0.2131,-1.3987,-0.0746,849.4714,29.4000,-17.0400,-35.3400,-110.328,-0.675,-48.783,0.00000000,0.00000000,0.00000000,
1.4380,0.7764,0.0122,0.6801,-0.9987,-0.5704,-0.7185,0.2131,-1.3987,-0.0746,849.4714,29.4000,-17.0400,-35.3400,-110.328,-0.675,-48.783,0.00000000,0.00000000,0.00000000,
1.4580,0.7764,0.0122,0.6801,0.9233,-0.7672,-0.4548,0.2131,-1.3987,-0.0746,849.4714,29.4000,-17.0400,-35.3400,-110.328,-0.675,-48.783,0.00000000,0.00000000,0.00000000,
1.4800,0.6479,0.0048,0.6527,0.9233,-0.7672,-0.4548,0.2131,-1.3987,-0.0746,849.4714,29.4000,-17.0400,-35.3400,-110.398,-0.301,-44.787,0.00000000,0.00000000,0.00000000,
1.4830,0.6479,0.0048,0.6527,0.9233,-0.7672,-0.4548,0.2131,-1.3987,-0.0746,849.4714,28.3200,-16.9200,-35.2800,-110.596,-0.301,-44.787,0.00000000,0.00000000,0.00000000,
1.4860,0.6479,0.0048,0.6527,0.9233,-0.7672,-0.4548,0.0415,-1.9047,-0.0075,849.4714,28.3200,-16.9200,-35.2800,-110.596,-0.301,-44.787,0.00000000,0.00000000,0.00000000,
1.5160,0.6479,0.0048,0.6527,-1.0894,-0.8522,0.0701,0.0415,-1.9047,-0.0075,849.4714,28.3200,-16.9200,-35.2800,-110.596,-0.301,-44.787,0.00000000,0.00000000,0.00000000,
1.5500,0.5951,0.0327,0.6591,-1.0894,-0.8522,0.0701,0.0415,-1.9047,-0.0075,849.4714,28.3200,-16.9200,-35.2800,-110.438,-2.107,-42.081,0.00000000,0.00000000,0.00000000,
1.5520,0.5951,0.0327,0.6591,-1.0894,-0.8522,0.0701,0.0415,-1.9047,-0.0075,849.4714,26.7000,-16.7400,-35.1000,-110.760,-2.107,-42.081,0.00000000,0.00000000,0.00000000,
1.5540,0.5951,0.0327,0.6591,-1.0894,-0.8522,0.0701,-0.3356,-0.7233,-0.0064,849.4714,26.7000,-16.7400,-35.1000,-110.760,-2.107,-42.081,0.00000000,0.00000000,0.00000000,
1.5720,0.5951,0.0327,0.6591,-1.8029,-0.4385,0.3517,-0.3356,-0.7233,-0.0064,849.4714,26.7000,-16.7400,-35.1000,-110.760,-2.107,-42.081,0.00000000,0.00000000,0.00000000,
1.6090,0.4730,-0.0279,0.8252,-1.8029,-0.4385,0.3517,-0.3356,-0.7233,-0.0064,849.4714,26.7000,-16.7400,-35.1000,-112.994,1.681,-29.820,0.00000000,0.00000000,0.00000000,
1.6150,0.4730,-0.0279,0.8252,-1.8029,-0.4385,0.3517,-0.3356,-0.7233,-0.0064,849.4714,24.6000,-16.3800,-34.8600,-113.604,1.681,-29.820,0.00000000,0.00000000,0.00000000,
1.6200,0.4730,-0.0279,0.8252,-1.8029,-0.4385,0.3517,-0.6477,-0.1257,0.2940,849.4714,24.6000,-16.3800,-34.8600,-113.604,1.681,-29.820,0.00000000,0.00000000,0.00000000,
1.6240,0.4730,-0.0279,0.8252,-1.8029,-0.4385,0.3517,-0.6477,-0.1257,0.2940,849.4443,24.6000,-16.3800,-34.8600,-113.604,1.681,-29.820,0.00000000,0.00000000,0.00000000,
1.6290,0.4730,-0.0279,0.8252,-1.8029,-0.4385,0.3517,-0.6477,-0.1257,0.2940,849.4443,24.6000,-16.3800,-34.8600,-113.604,1.681,-29.820,0.00000000,0.00000000,0.00000000,
1.6320,0.4730,-0.0279,0.8252,-2.8944,-0.6230,1.8137,-0.6477,-0.1257,0.2940,849.4443,24.6000,-16.3800,-34.8600,-113.604,1.681,-29.820,0.00000000,0.00000000,0.00000000,
1.6550,0.4529,-0.0543,0.5770,-2.8944,-0.6230,1.8137,-0.6477,-0.1257,0.2940,849.4443,24.6000,-16.3800,-34.8600,-112.866,4.233,-38.132,0.00000000,0.00000000,0.00000000,
1.6570,0.4529,-0.0543,0.5770,-2.8944,-0.6230,1.8137,-0.6477,-0.1257,0.2940,849.4443,22.0800,-15.9600,-34.6800,-113.576,4.233,-38.132,0.00000000,0.00000000,0.00000000,
1.6590,0.4529,-0.0543,0.5770,-2.8944,-0.6230,1.8137,-0.5220,0.6988,0.4240,849.4443,22.0800,-15.9600,-34.6800,-113.576,4.233,-38.132,0.00000000,0.00000000,0.00000000,
1.6970,0.4529,-0.0543,0.5770,-2.7611,-0.4626,-1.0033,-0.5220,0.6988,0.4240,849.4443,22.0800,-15.9600,-34.6800,-113.576,4.233,-38.132,0.00000000,0.00000000,0.00000000,
1.7350,0.5531,-0.1491,0.5716,-2.7611,-0.4626,-1.0033,-0.5220,0.6988,0.4240,849.4443,22.0800,-15.9600,-34.6800,-113.578,10.616,-44.057,0.00000000,0.00000000,0.00000000,
1.7400,0.5531,-0.1491,0.5716,-2.7611,-0.4626,-1.0033,-0.5220,0.6988,0.4240,849.4443,19.4400,-15.4800,-34.5600,-114.477,10.616,-44.057,0.00000000,0.00000000,0.00000000,
1.7450,0.5531,-0.1491,0.5716,-2.7611,-0.4626,-1.0033,-1.0802,1.0173,0.4112,849.4443,19.4400,-15.4800,-34.5600,-114.477,10.616,-44.057,0.00000000,0.00000000,0.00000000,
1.7550,0.5531,-0.1491,0.5716,-1.3453,-0.7157,-1.4579,-1.0802,1.0173,0.4112,849.4443,19.4400,-15.4800,-34.5600,-114.477,10.616,-44.057,0.00000000,0.00000000,0.00000000,
1.7790,0.5858,-0.2204,0.6762,-1.3453,-0.7157,-1.4579,-1.0802,1.0173,0.4112,849.4443,19.4400,-15.4800,-34.5600,-116.037,13.841,-40.906,0.00000000,0.00000000,0.00000000,
1.7820,0.5858,-0.2204,0.6762,-1.3453,-0.7157,-1.4579,-1.0802,1.0173,0.4112,849.4443,16.6200,-14.8200,-34.4400,-117.158,13.841,-40.906,0.00000000,0.00000000,0.00000000,
1.7860,0.5858,-0.2204,0.6762,-1.3453,-0.7157,-1.4579,-1.0994,2.3106,0.3483,849.4443,16.6200,-14.8200,-34.4400,-117.158,13.841,-40.906,0.00000000,0.00000000,0.00000000,
1.7920,0.5858,-0.2204,0.6762,-1.3453,-0.7157,-1.4579,-1.0994,2.3106,0.3483,849.4187,16.6200,-14.8200,-34.4400,-117.158,13.841,-40.906,0.00000000,0.00000000,0.00000000,
1.7980,0.5858,-0.2204,0.6762,-1.3453,-0.7157,-1.4579,-1.0994,2.3106,0.3483,849.4187,16.6200,-14.8200,-34.4400,-117.158,13.841,-40.906,0.00000000,0.00000000,0.00000000,
1.8170,0.5858,-0.2204,0.6762,0.0260,-0.7826,-1.2225,-1.0994,2.3106,0.3483,849.4187,16.6200,-14.8200,-34.4400,-117.158,13.841,-40.906,0.00000000,0.00000000,0.00000000,
1.8480,0.4515,-0.3323,0.7035,0.0260,-0.7826,-1.2225,-1.0994,2.3106,0.3483,849.4187,16.6200,-14.8200,-34.4400,-123.001,21.680,-32.689,0.00000000,0.00000000,0.00000000,
1.8510,0.4515,-0.3323,0.7035,0.0260,-0.7826,-1.2225,-1.0994,2.3106,0.3483,849.4187,13.9200,-13.8000,-34.5000,-124.391,21.680,-32.689,0.00000000,0.00000000,0.00000000,
1.8540,0.4515,-0.3323,0.7035,0.0260,-0.7826,-1.2225,-1.1675,2.5684,-0.3505,849.4187,13.9200,-13.8000,-34.5000,-124.391,21.680,-32.689,0.00000000,0.00000000,0.00000000,
1.8750,0.4515,-0.3323,0.7035,-0.0320,-1.4028,-1.6419,-1.1675,2.5684,-0.3505,849.4187,13.9200,-13.8000,-34.5000,-124.391,21.680,-32.689,0.00000000,0.00000000,0.00000000,
1.8960,0.5394,-0.0660,0.8623,-0.0320,-1.4028,-1.6419,-1.1675,2.5684,-0.3505,849.4187,13.9200,-13.8000,-34.5000,-116.776,3.714,-32.028,0.00000000,0.00000000,0.00000000,
1.8980,0.5394,-0.0660,0.8623,-0.0320,-1.4028,-1.6419,-1.1675,2.5684,-0.3505,849.4187,11.7000,-12.2400,-34.8600,-115.791,3.714,-32.028,0.00000000,0.00000000,0.00000000,
1.9000,0.5394,-0.0660,0.8623,-0.0320,-1.4028,-1.6419,-1.1068,1.5489,-0.4432,849.4187,11.7000,-12.2400,-34.8600,-115.791,3.714,-32.028,0.00000000,0.00000000,0.00000000,
1.9330,0.5394,-0.0660,0.8623,1.4312,1.5368,-0.2977,-1.1068,1.5489,-0.4432,849.4187,11.7000,-12.2400,-34.8600,-115.791,3.714,-32.028,0.00000000,0.00000000,0.00000000,
1.9630,0.2590,-0.1603,0.9821,1.4312,1.5368,-0.2977,-1.1068,1.5489,-0.4432,849.4187,11.7000,-12.2400,-34.8600,-129.883,8.971,-14.772,0.00000000,0.00000000,0.00000000,
1.9660,0.2590,-0.1603,0.9821,1.4312,1.5368,-0.2977,-1.1068,1.5489,-0.4432,849.4187,9.9600,-10.3200,-35.2200,-129.069,8.971,-14.772,0.00000000,0.00000000,0.00000000,
1.9690,0.2590,-0.1603,0.9821,1.4312,1.5368,-0.2977,-0.8064,0.3515,-0.4080,849.4187,9.9600,-10.3200,-35.2200,-129.069,8.971,-14.772,0.00000000,0.00000000,0.00000000,
1.9710,0.2590,-0.1603,0.9821,1.4312,1.5368,-0.2977,-0.8064,0.3515,-0.4080,849.4211,9.9600,-10.3200,-35.2200,-129.069,8.971,-14.772,0.00000000,0.00000000,0.00000000,
1.9770,0.2590,-0.1603,0.9821,1.4312,1.5368,-0.2977,-0.8064,0.3515,-0.4080,849.4211,9.9600,-10.3200,-35.2200,-129.069,8.971,-14.772,0.00000000,0.00000000,0.00000000,
1.9970,0.2590,-0.1603,0.9821,-1.1113,0.8577,0.8517,-0.8064,0.3515,-0.4080,849.4211,9.9600,-10.3200,-35.2200,-129.069,8.971,-14.772,0.00000000,0.00000000,0.00000000,
2.0150,0.4417,-0.0240,1.0964,-1.1113,0.8577,0.8517,-0.8064,0.3515,-0.4080,849.4211,9.9600,-10.3200,-35.2200,-115.960,1.163,-21.943,0.00000000,0.00000000,0.00000000,
2.0180,0.4417,-0.0240,1.0964,-1.1113,0.8577,0.8517,-0.8064,0.3515,-0.4080,849.4211,8.3400,-8.4000,-35.6400,-113.159,1.163,-21.943,0.00000000,0.00000000,0.00000000,
2.0190,0.4417,-0.0240,1.0964,-1.1113,0.8577,0.8517,-0.1662,0.1832,-0.6658,849.4211,8.3400,-8.4000,-35.6400,-113.159,1.163,-21.943,0.00000000,0.00000000,0.00000000,
2.0530,0.4417,-0.0240,1.0964,0.6753,1.9757,1.9165,-0.1662,0.1832,-0.6658,849.4211,8.3400,-8.4000,-35.6400,-113.159,1.163,-21.943,0.00000000,0.00000000,0.00000000,
2.0820,0.4593,-0.2077,0.9747,0.6753,1.9757,1.9165,-0.1662,0.1832,-0.6658,849.4211,8.3400,-8.4000,-35.6400,-121.031,10.912,-25.230,0.00000000,0.00000000,0.00000000,
2.0860,0.4593,-0.2077,0.9747,0.6753,1.9757,1.9165,-0.1662,0.1832,-0.6658,849.4211,6.8400,-6.4200,-35.9400,-118.969,10.912,-25.230,0.00000000,0.00000000,0.00000000,
2.0900,0.4593,-0.2077,0.9747,0.6753,1.9757,1.9165,0.1012,-0.2226,-0.3707,849.4211,6.8400,-6.4200,-35.9400,-118.969,10.912,-25.230,0.00000000,0.00000000,0.00000000,
2.1120,0.4593,-0.2077,0.9747,0.6625,0.0093,0.7629,0.1012,-0.2226,-0.3707,849.4211,6.8400,-6.4200,-35.9400,-118.969,10.912,-25.230,0.00000000,0.00000000,0.00000000,
2.1410,0.3186,-0.2224,0.9166,0.6625,0.0093,0.7629,0.1012,-0.2226,-0.3707,849.4211,6.8400,-6.4200,-35.9400,-126.149,12.908,-19.166,0.00000000,0.00000000,0.00000000,
2.1450,0.3186,-0.2224,0.9166,0.6625,0.0093,0.7629,0.1012,-0.2226,-0.3707,849.4211,5.5200,-4.6800,-36.1800,-124.600,12.908,-19.166,0.00000000,0.00000000,0.00000000,
2.1490,0.3186,-0.2224,0.9166,0.6625,0.0093,0.7629,0.2365,0.7521,-0.9193,849.4211,5.5200,-4.6800,-36.1800,-124.600,12.908,-19.166,0.00000000,0.00000000,0.00000000,
2.1510,0.3186,-0.2224,0.9166,0.6625,0.0093,0.7629,0.2365,0.7521,-0.9193,849.2056,5.5200,-4.6800,-36.1800,-124.600,12.908,-19.166,0.00000000,0.00000000,0.00000000,
2.1530,0.3186,-0.2224,0.9166,0.6625,0.0093,0.7629,0.2365,0.7521,-0.9193,849.2056,5.5200,-4.6800,-36.1800,-124.600,12.908,-19.166,0.00000000,0.00000000,0.00000000,
2.1700,0.3186,-0.2224,0.9166,-0.4325,-0.4398,0.0097,0.2365,0.7521,-0.9193,849.2056,5.5200,-4.6800,-36.1800,-124.600,12.908,-19.166,0.00000000,0.00000000,0.00000000,
2.2070,0.3337,-0.1745,0.8848,-0.4325,-0.4398,0.0097,0.2365,0.7521,-0.9193,849.2056,5.5200,-4.6800,-36.1800,-120.091,10.455,-20.665,0.00000000,0.00000000,0.00000000,
2.2110,0.3337,-0.1745,0.8848,-0.4325,-0.4398,0.0097,0.2365,0.7521,-0.9193,849.2056,4.7400,-3.2400,-36.2400,-117.681,10.455,-20.665,0.00000000,0.00000000,0.00000000,
2.2160,0.3337,-0.1745,0.8848,-0.4325,-0.4398,0.0097,-0.1246,0.5518,-0.4495,849.2056,4.7400,-3.2400,-36.2400,-117.681,10.455,-20.665,0.00000000,0.00000000,0.00000000,
2.2390,0.3337,-0.1745,0.8848,-0.0144,-0.0010,-0.4095,-0.1246,0.5518,-0.4495,849.2056,4.7400,-3.2400,-36.2400,-117.681,10.455,-20.665,0.00000000,0.00000000,0.00000000,
2.2620,0.2673,-0.1960,0.9703,-0.0144,-0.0010,-0.4095,-0.1246,0.5518,-0.4495,849.2056,4.7400,-3.2400,-36.2400,-124.123,11.020,-15.400,0.00000000,0.00000000,0.00000000,
2.2690,0.2673,-0.1960,0.9703,-0.0144,-0.0010,-0.4095,-0.1246,0.5518,-0.4495,849.2056,4.6800,-2.0400,-36.1800,-120.845,11.020,-15.400,0.00000000,0.00000000,0.00000000,
2.2710,0.2673,-0.1960,0.9703,-0.0144,-0.0010,-0.4095,-0.1289,0.6626,-0.3473,849.2056,4.6800,-2.0400,-36.1800,-120.845,11.020,-15.400,0.00000000,0.00000000,0.00000000,
2.2900,0.2673,-0.1960,0.9703,-0.3211,-0.1890,0.3154,-0.1289,0.6626,-0.3473,849.2056,4.6800,-2.0400,-36.1800,-120.845,11.020,-15.400,0.00000000,0.00000000,0.00000000,
2.3240,0.2668,-0.0655,1.0060,-0.3211,-0.1890,0.3154,-0.1289,0.6626,-0.3473,849.2056,4.6800,-2.0400,-36.1800,-106.771,3.603,-14.853,0.00000000,0.00000000,0.00000000,
2.3300,0.2668,-0.0655,1.0060,-0.3211,-0.1890,0.3154,-0.1289,0.6626,-0.3473,849.2056,5.1000,-0.7800,-36.1800,-101.516,3.603,-14.853,0.00000000,0.00000000,0.00000000,
2.3340,0.2668,-0.0655,1.0060,-0.3211,-0.1890,0.3154,-0.2141,1.1281,-0.5539,849.2056,5.1000,-0.7800,-36.1800,-101.516,3.603,-14.853,0.00000000,0.00000000,0.00000000,
2.3380,0.2668,-0.0655,1.0060,-0.3211,-0.1890,0.3154,-0.2141,1.1281,-0.5539,849.2803,5.1000,-0.7800,-36.1800,-101.516,3.603,-14.853,0.00000000,0.00000000,0.00000000,
2.3390,0.2668,-0.0655,1.0060,-0.3211,-0.1890,0.3154,-0.2141,1.1281,-0.5539,849.2803,5.1000,-0.7800,-36.1800,-101.516,3.603,-14.853,0.00000000,0.00000000,0.00000000,
2.3500,0.2668,-0.0655,1.0060,0.2241,1.0529,0.5001,-0.2141,1.1281,-0.5539,849.2803,5.1000,-0.7800,-36.1800,-101.516,3.603,-14.853,0.00000000,0.00000000,0.00000000,
2.3790,0.2380,-0.1862,0.8628,0.2241,1.0529,0.5001,-0.2141,1.1281,-0.5539,849.2803,5.1000,-0.7800,-36.1800,-117.579,11.753,-15.418,0.00000000,0.00000000,0.00000000,
2.3820,0.2380,-0.1862,0.8628,0.2241,1.0529,0.5001,-0.2141,1.1281,-0.5539,849.2803,5.7000,0.4200,-36.1200,-112.885,11.753,-15.418,0.00000000,0.00000000,0.00000000,
2.3860,0.2380,-0.1862,0.8628,0.2241,1.0529,0.5001,0.1630,1.2048,-0.3388,849.2803,5.7000,0.4200,-36.1200,-112.885,11.753,-15.418,0.00000000,0.00000000,0.00000000,
2.4100,0.2380,-0.1862,0.8628,0.5575,-0.2603,-1.0613,0.1630,1.2048,-0.3388,849.2803,5.7000,0.4200,-36.1200,-112.885,11.753,-15.418,0.00000000,0.00000000,0.00000000,
2.4510,0.2008,-0.0719,0.9557,0.5575,-0.2603,-1.0613,0.1630,1.2048,-0.3388,849.2803,5.7000,0.4200,-36.1200,-99.130,4.210,-11.867,0.00000000,0.00000000,0.00000000,
2.4640,0.2008,-0.0719,0.9557,0.5575,-0.2603,-1.0613,0.1630,1.2048,-0.3388,849.2803,6.7200,1.6800,-36.1800,-93.358,4.210,-11.867,0.00000000,0.00000000,0.00000000,
2.4710,0.2008,-0.0719,0.9557,0.5575,-0.2603,-1.0613,-0.1278,0.9523,-0.1715,849.2803,6.7200,1.6800,-36.1800,-93.358,4.210,-11.867,0.00000000,0.00000000,0.00000000,
2.4820,0.2008,-0.0719,0.9557,0.6798,0.8789,-0.2263,-0.1278,0.9523,-0.1715,849.2803,6.7200,1.6800,-36.1800,-93.358,4.210,-11.867,0.00000000,0.00000000,0.00000000,
2.5040,0.0039,-0.1251,0.9488,0.6798,0.8789,-0.2263,-0.1278,0.9523,-0.1715,849.2803,6.7200,1.6800,-36.1800,-114.024,7.514,-0.236,0.00000000,0.00000000,0.00000000,
2.5090,0.0039,-0.1251,0.9488,0.6798,0.8789,-0.2263,-0.1278,0.9523,-0.1715,849.2803,8.1600,3.0000,-36.3000,-102.012,7.514,-0.236,0.00000000,0.00000000,0.00000000,
2.5110,0.0039,-0.1251,0.9488,0.6798,0.8789,-0.2263,0.0671,1.0610,0.0863,849.2803,8.1600,3.0000,-36.3000,-102.012,7.514,-0.236,0.00000000,0.00000000,0.00000000,
2.5130,0.0039,-0.1251,0.9488,0.6798,0.8789,-0.2263,0.0671,1.0610,0.0863,849.4133,8.1600,3.0000,-36.3000,-102.012,7.514,-0.236,0.00000000,0.00000000,0.00000000,
2.5140,0.0039,-0.1251,0.9488,0.6798,0.8789,-0.2263,0.0671,1.0610,0.0863,849.4133,8.1600,3.0000,-36.3000,-102.012,7.514,-0.236,0.00000000,0.00000000,0.00000000,
2.5300,0.0039,-0.1251,0.9488,-0.5904,0.2975,-0.3686,0.0671,1.0610,0.0863,849.4133,8.1600,3.0000,-36.3000,-102.012,7.514,-0.236,0.00000000,0.00000000,0.00000000,
2.5630,0.0381,-0.0778,1.0842,-0.5904,0.2975,-0.3686,0.0671,1.0610,0.0863,849.4133,8.1600,3.0000,-36.3000,-87.453,4.099,-2.013,0.00000000,0.00000000,0.00000000,
2.5740,0.0381,-0.0778,1.0842,-0.5904,0.2975,-0.3686,0.0671,1.0610,0.0863,849.4133,9.9600,4.3800,-36.5400,-80.983,4.099,-2.013,0.00000000,0.00000000,0.00000000,
2.5790,0.0381,-0.0778,1.0842,-0.5904,0.2975,-0.3686,0.1214,0.8373,0.5177,849.4133,9.9600,4.3800,-36.5400,-80.983,4.099,-2.013,0.00000000,0.00000000,0.00000000,
2.5900,0.0381,-0.0778,1.0842,0.2555,0.6727,0.9244,0.1214,0.8373,0.5177,849.4133,9.9600,4.3800,-36.5400,-80.983,4.099,-2.013,0.00000000,0.00000000,0.00000000,
2.6120,-0.0396,-0.2160,0.9298,0.2555,0.6727,0.9244,0.1214,0.8373,0.5177,849.4133,9.9600,4.3800,-36.5400,-115.938,13.069,2.437,0.00000000,0.00000000,0.00000000,
2.6180,-0.0396,-0.2160,0.9298,0.2555,0.6727,0.9244,0.1214,0.8373,0.5177,849.4133,12.1800,5.7000,-36.7200,-105.092,13.069,2.437,0.00000000,0.00000000,0.00000000,
2.6190,-0.0396,-0.2160,0.9298,0.2555,0.6727,0.9244,0.1278,0.9737,0.4794,849.4133,12.1800,5.7000,-36.7200,-105.092,13.069,2.437,0.00000000,0.00000000,0.00000000,
2.6560,-0.0396,-0.2160,0.9298,0.0942,-0.7283,-0.5841,0.1278,0.9737,0.4794,849.4133,12.1800,5.7000,-36.7200,-105.092,13.069,2.437,0.00000000,0.00000000,0.00000000,
2.6910,-0.0049,-0.1222,0.9806,0.0942,-0.7283,-0.5841,0.1278,0.9737,0.4794,849.4133,12.1800,5.7000,-36.7200,-84.726,7.104,0.285,0.00000000,0.00000000,0.00000000,
2.7030,-0.0049,-0.1222,0.9806,0.0942,-0.7283,-0.5841,0.1278,0.9737,0.4794,849.4133,14.7000,7.0200,-36.9000,-80.637,7.104,0.285,0.00000000,0.00000000,0.00000000,
2.7100,-0.0049,-0.1222,0.9806,0.0942,-0.7283,-0.5841,-0.2429,0.6914,0.8416,849.4133,14.7000,7.0200,-36.9000,-80.637,7.104,0.285,0.00000000,0.00000000,0.00000000,
2.7220,-0.0049,-0.1222,0.9806,0.0942,-0.7283,-0.5841,-0.2429,0.6914,0.8416,849.4702,14.7000,7.0200,-36.9000,-80.637,7.104,0.285,0.00000000,0.00000000,0.00000000,
2.7300,-0.0049,-0.1222,0.9806,0.0942,-0.7283,-0.5841,-0.2429,0.6914,0.8416,849.4702,14.7000,7.0200,-36.9000,-80.637,7.104,0.285,0.00000000,0.00000000,0.00000000,
2.7410,-0.0049,-0.1222,0.9806,0.8880,0.2804,-0.0396,-0.2429,0.6914,0.8416,849.4702,14.7000,7.0200,-36.9000,-80.637,7.104,0.285,0.00000000,0.00000000,0.00000000,
2.7440,-0.0694,-0.1422,0.9317,0.8880,0.2804,-0.0396,-0.2429,0.6914,0.8416,849.4702,14.7000,7.0200,-36.9000,-84.075,8.657,4.259,0.00000000,0.00000000,0.00000000,
2.7450,-0.0694,-0.1422,0.9317,0.8880,0.2804,-0.0396,-0.2429,0.6914,0.8416,849.4702,17.4000,8.3400,-37.0200,-80.309,8.657,4.259,0.00000000,0.00000000,0.00000000,
2.7470,-0.0694,-0.1422,0.9317,0.8880,0.2804,-0.0396,-0.0107,0.3057,0.7830,849.4702,17.4000,8.3400,-37.0200,-80.309,8.657,4.259,0.00000000,0.00000000,0.00000000,
2.7720,-0.0694,-0.1422,0.9317,0.4905,0.0524,-0.4976,-0.0107,0.3057,0.7830,849.4702,17.4000,8.3400,-37.0200,-80.309,8.657,4.259,0.00000000,0.00000000,0.00000000,
2.8020,-0.1881,-0.1818,0.8853,0.4905,0.0524,-0.4976,-0.0107,0.3057,0.7830,849.4702,17.4000,8.3400,-37.0200,-87.961,11.359,11.996,0.00000000,0.00000000,0.00000000,
2.8060,-0.1881,-0.1818,0.8853,0.4905,0.0524,-0.4976,-0.0107,0.3057,0.7830,849.4702,19.9800,9.3000,-36.9600,-84.323,11.359,11.996,0.00000000,0.00000000,0.00000000,
2.8100,-0.1881,-0.1818,0.8853,0.4905,0.0524,-0.4976,-0.5316,0.7105,0.3611,849.4702,19.9800,9.3000,-36.9600,-84.323,11.359,11.996,0.00000000,0.00000000,0.00000000,
2.8310,-0.1881,-0.1818,0.8853,-0.2612,-0.0863,-0.8525,-0.5316,0.7105,0.3611,849.4702,19.9800,9.3000,-36.9600,-84.323,11.359,11.996,0.00000000,0.00000000,0.00000000,
2.8720,-0.2062,-0.2869,0.8418,-0.2612,-0.0863,-0.8525,-0.5316,0.7105,0.3611,849.4702,19.9800,9.3000,-36.9600,-110.392,18.314,13.763,0.00000000,0.00000000,0.00000000,
2.8870,-0.2062,-0.2869,0.8418,-0.2612,-0.0863,-0.8525,-0.5316,0.7105,0.3611,849.4702,22.2000,9.9000,-36.7200,-105.131,18.314,13.763,0.00000000,0.00000000,0.00000000,
2.8920,-0.2062,-0.2869,0.8418,-0.2612,-0.0863,-0.8525,-1.2858,1.0418,0.3004,849.4702,22.2000,9.9000,-36.7200,-105.131,18.314,13.763,0.00000000,0.00000000,0.00000000,
2.8980,-0.2062,-0.2869,0.8418,-0.2612,-0.0863,-0.8525,-1.2858,1.0418,0.3004,849.3835,22.2000,9.9000,-36.7200,-105.131,18.314,13.763,0.00000000,0.00000000,0.00000000,
2.9020,-0.2062,-0.2869,0.8418,-0.2612,-0.0863,-0.8525,-1.2858,1.0418,0.3004,849.3835,22.2000,9.9000,-36.7200,-105.131,18.314,13.763,0.00000000,0.00000000,0.00000000,
2.9050,-0.2062,-0.2869,0.8418,0.1980,-0.4047,-0.9944,-1.2858,1.0418,0.3004,849.3835,22.2000,9.9000,-36.7200,-105.131,18.314,13.763,0.00000000,0.00000000,0.00000000,
2.9160,-0.2404,-0.2776,1.0001,0.1980,-0.4047,-0.9944,-1.2858,1.0418,0.3004,849.3835,22.2000,9.9000,-36.7200,-94.819,15.103,13.516,0.00000000,0.00000000,0.00000000,
2.9200,-0.2404,-0.2776,1.0001,0.1980,-0.4047,-0.9944,-1.2858,1.0418,0.3004,849.3835,24.0600,10.2000,-36.2400,-93.062,15.103,13.516,0.00000000,0.00000000,0.00000000,
2.9210,-0.2404,-0.2776,1.0001,0.1980,-0.4047,-0.9944,-1.3199,0.2621,0.4932,849.3835,24.0600,10.2000,-36.2400,-93.062,15.103,13.516,0.00000000,0.00000000,0.00000000,
2.9500,-0.2404,-0.2776,1.0001,0.1566,0.3531,0.8340,-1.3199,0.2621,0.4932,849.3835,24.0600,10.2000,-36.2400,-93.062,15.103,13.516,0.00000000,0.00000000,0.00000000,
2.9750,-0.1847,-0.3499,0.8599,0.1566,0.3531,0.8340,-1.3199,0.2621,0.4932,849.3835,24.0600,10.2000,-36.2400,-109.028,21.695,12.122,49.17451803,-121.67761790,0.88999999,
2.9850,-0.1847,-0.3499,0.8599,0.1566,0.3531,0.8340,-1.3199,0.2621,0.4932,849.3835,25.9800,10.5000,-35.7000,-106.087,21.695,12.122,49.17451803,-121.67761790,0.88999999,
2.9870,-0.1847,-0.3499,0.8599,0.1566,0.3531,0.8340,-0.8448,-0.4123,0.4687,849.3835,25.9800,10.5000,-35.7000,-106.087,21.695,12.122,49.17451803,-121.67761790,0.88999999,
3.0090,-0.1847,-0.3499,0.8599,0.6031,0.0570,-0.4157,-0.8448,-0.4123,0.4687,849.3835,25.9800,10.5000,-35.7000,-106.087,21.695,12.122,49.17451803,-121.67761790,0.88999999,
3.0310,-0.2502,-0.3675,0.5105,0.6031,0.0570,-0.4157,-0.8448,-0.4123,0.4687,849.3835,25.9800,10.5000,-35.7000,-152.740,32.878,26.105,49.17451803,-121.67761790,0.88999999,
3.0330,-0.2502,-0.3675,0.5105,0.6031,0.0570,-0.4157,-0.8448,-0.4123,0.4687,849.3835,27.9000,10.6800,-35.1000,-147.016,32.878,26.105,49.17451803,-121.67761790,0.88999999,
3.0360,-0.2502,-0.3675,0.5105,0.6031,0.0570,-0.4157,-1.0983,1.0450,-0.0692,849.3835,27.9000,10.6800,-35.1000,-147.016,32.878,26.105,49.17451803,-121.67761790,0.88999999,
3.0490,-0.2502,-0.3675,0.5105,0.6031,0.0570,-0.4157,-1.0983,1.0450,-0.0692,849.4392,27.9000,10.6800,-35.1000,-147.016,32.878,26.105,49.17451803,-121.67761790,0.88999999,
3.0520,-0.2502,-0.3675,0.5105,0.6031,0.0570,-0.4157,-1.0983,1.0450,-0.0692,849.4392,27.9000,10.6800,-35.1000,-147.016,32.878,26.105,49.17451803,-121.67761790,0.88999999,
3.0700,-0.2502,-0.3675,0.5105,0.4216,0.4093,-3.4719,-1.0983,1.0450,-0.0692,849.4392,27.9000,10.6800,-35.1000,-147.016,32.878,26.105,49.17451803,-121.67761790,0.88999999,
3.0940,-0.3938,-0.4164,1.1321,0.4216,0.4093,-3.4719,-1.0983,1.0450,-0.0692,849.4392,27.9000,10.6800,-35.1000,-104.374,19.156,19.182,49.17451803,-121.67761790,0.88999999,
3.0990,-0.3938,-0.4164,1.1321,0.4216,0.4093,-3.4719,-1.0983,1.0450,-0.0692,849.4392,29.8200,10.9800,-34.3800,-101.716,19.156,19.182,49.17451803,-121.67761790,0.88999999,
3.1070,-0.3938,-0.4164,1.1321,0.4216,0.4093,-3.4719,-1.8003,0.2035,0.1886,849.4392,29.8200,10.9800,-34.3800,-101.716,19.156,19.182,49.17451803,-121.67761790,0.88999999,
3.1290,-0.3938,-0.4164,1.1321,-0.7766,0.7867,3.1582,-1.8003,0.2035,0.1886,849.4392,29.8200,10.9800,-34.3800,-101.716,19.156,19.182,49.17451803,-121.67761790,0.88999999,
3.1510,-0.4896,-0.6299,0.7807,-0.7766,0.7867,3.1582,-1.8003,0.2035,0.1886,849.4392,29.8200,10.9800,-34.3800,-156.777,34.353,32.091,49.17451803,-121.67761790,0.88999999,
3.1550,-0.4896,-0.6299,0.7807,-0.7766,0.7867,3.1582,-1.8003,0.2035,0.1886,849.4392,31.8600,11.5200,-33.5400,-150.288,34.353,32.091,49.17451803,-121.67761790,0.88999999,
3.1560,-0.4896,-0.6299,0.7807,-0.7766,0.7867,3.1582,-0.9492,-0.0277,0.1172,849.4392,31.8600,11.5200,-33.5400,-150.288,34.353,32.091,49.17451803,-121.67761790,0.88999999,
3.1880,-0.4896,-0.6299,0.7807,-1.5532,-0.8355,0.0912,-0.9492,-0.0277,0.1172,849.4392,31.8600,11.5200,-33.5400,-150.288,34.353,32.091,49.17451803,-121.67761790,0.88999999,
3.2280,-0.4481,-0.8385,0.3341,-1.5532,-0.8355,0.0912,-0.9492,-0.0277,0.1172,849.4392,31.8600,11.5200,-33.5400,166.044,56.313,53.285,49.17451803,-121.67761790,0.88999999,
3.2400,-0.4481,-0.8385,0.3341,-1.5532,-0.8355,0.0912,-0.9492,-0.0277,0.1172,849.4392,33.9600,12.1200,-32.7000,169.597,56.313,53.285,49.17451803,-121.67761790,0.88999999,
3.2420,-0.4481,-0.8385,0.3341,-1.5532,-0.8355,0.0912,-2.1582,-0.1023,0.3856,849.4392,33.9600,12.1200,-32.7000,169.597,56.313,53.285,49.17451803,-121.67761790,0.88999999,
3.2440,-0.4481,-0.8385,0.3341,-1.5532,-0.8355,0.0912,-2.1582,-0.1023,0.3856,849.2622,33.9600,12.1200,-32.7000,169.597,56.313,53.285,49.17451803,-121.67761790,0.88999999,
3.2450,-0.4481,-0.8385,0.3341,-1.5532,-0.8355,0.0912,-2.1582,-0.1023,0.3856,849.2622,33.9600,12.1200,-32.7000,169.597,56.313,53.285,49.17451803,-121.67761790,0.88999999,
3.2490,-0.4481,-0.8385,0.3341,-1.0421,-1.9858,-3.5166,-2.1582,-0.1023,0.3856,849.2622,33.9600,12.1200,-32.7000,169.597,56.313,53.285,49.17451803,-121.67761790,0.88999999,
3.2710,0.2370,-0.6778,0.5521,-1.0421,-1.9858,-3.5166,-2.1582,-0.1023,0.3856,849.2622,33.9600,12.1200,-32.7000,-95.726,48.446,-23.231,49.17451803,-121.67761790,0.88999999,
3.2740,0.2370,-0.6778,0.5521,-1.0421,-1.9858,-3.5166,-2.1582,-0.1023,0.3856,849.2622,36.0000,13.0200,-31.7400,-93.217,48.446,-23.231,49.17451803,-121.67761790,0.88999999,
3.2760,0.2370,-0.6778,0.5521,-1.0421,-1.9858,-3.5166,-2.3255,0.6424,0.4559,849.2622,36.0000,13.0200,-31.7400,-93.217,48.446,-23.231,49.17451803,-121.67761790,0.88999999,
3.3150,0.2370,-0.6778,0.5521,6.0753,0.3900,-0.3025,-2.3255,0.6424,0.4559,849.2622,36.0000,13.0200,-31.7400,-93.217,48.446,-23.231,49.17451803,-121.67761790,0.88999999,
3.3490,-0.2404,-0.7740,0.6332,6.0753,0.3900,-0.3025,-2.3255,0.6424,0.4559,849.2622,36.0000,13.0200,-31.7400,-136.232,48.814,20.790,49.17451803,-121.67761790,0.88999999,
3.3600,-0.2404,-0.7740,0.6332,6.0753,0.3900,-0.3025,-2.3255,0.6424,0.4559,849.2622,37.9800,14.2800,-30.4200,-131.866,48.814,20.790,49.17451803,-121.67761790,0.88999999,
3.3640,-0.2404,-0.7740,0.6332,6.0753,0.3900,-0.3025,-1.1121,-1.2229,-0.2024,849.2622,37.9800,14.2800,-30.4200,-131.866,48.814,20.790,49.17451803,-121.67761790,0.88999999,
3.3720,-0.2404,-0.7740,0.6332,0.7735,-0.0183,0.8093,-1.1121,-1.2229,-0.2024,849.2622,37.9800,14.2800,-30.4200,-131.866,48.814,20.790,49.17451803,-121.67761790,0.88999999,
3.3990,-0.3147,-0.7970,0.6244,0.7735,-0.0183,0.8093,-1.1121,-1.2229,-0.2024,849.2622,37.9800,14.2800,-30.4200,-139.703,48.740,26.746,49.17451803,-121.67761790,0.88999999,
3.4040,-0.3147,-0.7970,0.6244,0.7735,-0.0183,0.8093,-1.1121,-1.2229,-0.2024,849.2622,39.7200,15.7800,-29.0400,-135.158,48.740,26.746,49.17451803,-121.67761790,0.88999999,
3.4090,-0.3147,-0.7970,0.6244,0.7735,-0.0183,0.8093,-0.2770,-0.2099,-0.4123,849.2622,39.7200,15.7800,-29.0400,-135.158,48.740,26.746,49.17451803,-121.67761790,0.88999999,
3.4140,-0.3147,-0.7970,0.6244,0.7735,-0.0183,0.8093,-0.2770,-0.2099,-0.4123,849.1992,39.7200,15.7800,-29.0400,-135.158,48.740,26.746,49.17451803,-121.67761790,0.88999999,
3.4190,-0.3147,-0.7970,0.6244,0.7735,-0.0183,0.8093,-0.2770,-0.2099,-0.4123,849.1992,39.7200,15.7800,-29.0400,-135.158,48.740,26.746,49.17451803,-121.67761790,0.88999999,
3.4280,-0.3147,-0.7970,0.6244,-0.4933,-0.1541,0.5656,-0.2770,-0.2099,-0.4123,849.1992,39.7200,15.7800,-29.0400,-135.158,48.740,26.746,49.17451803,-121.67761790,0.88999999,
3.4510,-0.3669,-0.7589,0.9952,-0.4933,-0.1541,0.5656,-0.2770,-0.2099,-0.4123,849.1992,39.7200,15.7800,-29.0400,-112.030,35.581,20.239,49.17451803,-121.67761790,0.88999999,
3.4530,-0.3669,-0.7589,0.9952,-0.4933,-0.1541,0.5656,-0.2770,-0.2099,-0.4123,849.1992,41.2200,17.4000,-27.5400,-107.482,35.581,20.239,49.17451803,-121.67761790,0.88999999,
3.4550,-0.3669,-0.7589,0.9952,-0.4933,-0.1541,0.5656,-1.3518,-0.7084,0.2610,849.1992,41.2200,17.4000,-27.5400,-107.482,35.581,20.239,49.17451803,-121.67761790,0.88999999,
3.4910,-0.3669,-0.7589,0.9952,-0.9510,0.3822,4.4587,-1.3518,-0.7084,0.2610,849.1992,41.2200,17.4000,-27.5400,-107.482,35.581,20.239,49.17451803,-121.67761790,0.88999999,
3.5100,-0.0381,-0.8981,0.5140,-0.9510,0.3822,4.4587,-1.3518,-0.7084,0.2610,849.1992,41.2200,17.4000,-27.5400,-114.500,60.152,4.241,49.17451803,-121.67761790,0.88999999,
3.5120,-0.0381,-0.8981,0.5140,-0.9510,0.3822,4.4587,-1.3518,-0.7084,0.2610,849.1992,42.6000,19.2000,-26.0400,-111.162,60.152,4.241,49.17451803,-121.67761790,0.88999999,
3.5170,-0.0381,-0.8981,0.5140,-0.9510,0.3822,4.4587,-0.0916,0.9566,-0.6083,849.1992,42.6000,19.2000,-26.0400,-111.162,60.152,4.241,49.17451803,-121.67761790,0.88999999,
3.5510,-0.0381,-0.8981,0.5140,2.1394,-0.7361,0.0566,-0.0916,0.9566,-0.6083,849.1992,42.6000,19.2000,-26.0400,-111.162,60.152,4.241,49.17451803,-121.67761790,0.88999999,
3.5810,-0.3860,-0.9216,0.4065,2.1394,-0.7361,0.0566,-0.0916,0.9566,-0.6083,849.1992,42.6000,19.2000,-26.0400,-157.457,58.690,43.521,49.17451803,-121.67761790,0.88999999,
3.5880,-0.3860,-0.9216,0.4065,2.1394,-0.7361,0.0566,-0.0916,0.9566,-0.6083,849.1992,43.5600,21.2400,-24.4200,-153.573,58.690,43.521,49.17451803,-121.67761790,0.88999999,
3.5960,-0.3860,-0.9216,0.4065,2.1394,-0.7361,0.0566,-0.5294,0.9225,0.2141,849.1992,43.5600,21.2400,-24.4200,-153.573,58.690,43.521,49.17451803,-121.67761790,0.88999999,
3.6010,-0.3860,-0.9216,0.4065,2.1394,-0.7361,0.0566,-0.5294,0.9225,0.2141,849.3911,43.5600,21.2400,-24.4200,-153.573,58.690,43.521,49.17451803,-121.67761790,0.88999999,
3.6020,-0.3860,-0.9216,0.4065,2.1394,-0.7361,0.0566,-0.5294,0.9225,0.2141,849.3911,43.5600,21.2400,-24.4200,-153.573,58.690,43.521,49.17451803,-121.67761790,0.88999999,
3.6080,-0.3860,-0.9216,0.4065,-1.0593,-0.8418,-0.6730,-0.5294,0.9225,0.2141,849.3911,43.5600,21.2400,-24.4200,-153.573,58.690,43.521,49.17451803,-121.67761790,0.88999999,
3.6300,-0.4827,-1.1752,0.1128,-1.0593,-0.8418,-0.6730,-0.5294,0.9225,0.2141,849.3911,43.5600,21.2400,-24.4200,158.904,67.127,76.847,49.17451803,-121.67761790,0.88999999,
3.6310,-0.4827,-1.1752,0.1128,-1.0593,-0.8418,-0.6730,-0.5294,0.9225,0.2141,849.3911,44.3400,23.3400,-22.7400,161.234,67.127,76.847,49.17451803,-121.67761790,0.88999999,
3.6360,-0.4827,-1.1752,0.1128,-1.0593,-0.8418,-0.6730,-0.5614,0.8373,0.1395,849.3911,44.3400,23.3400,-22.7400,161.234,67.127,76.847,49.17451803,-121.67761790,0.88999999,
3.6720,-0.4827,-1.1752,0.1128,-1.5719,-3.1268,-2.8695,-0.5614,0.8373,0.1395,849.3911,44.3400,23.3400,-22.7400,161.234,67.127,76.847,49.17451803,-121.67761790,0.88999999,
3.7020,0.0171,-0.8024,0.6483,-1.5719,-3.1268,-2.8695,-0.5614,0.8373,0.1395,849.3911,44.3400,23.3400,-22.7400,-92.673,51.051,-1.511,49.17451803,-121.67761790,0.88999999,
3.7070,0.0171,-0.8024,0.6483,-1.5719,-3.1268,-2.8695,-0.5614,0.8373,0.1395,849.3911,44.9400,25.4400,-20.8800,-89.142,51.051,-1.511,49.17451803,-121.67761790,0.88999999,
3.7120,0.0171,-0.8024,0.6483,-1.5719,-3.1268,-2.8695,-0.2993,0.6839,-0.4016,849.3911,44.9400,25.4400,-20.8800,-89.142,51.051,-1.511,49.17451803,-121.67761790,0.88999999,
3.7290,0.0171,-0.8024,0.6483,3.1316,0.8308,2.9184,-0.2993,0.6839,-0.4016,849.3911,44.9400,25.4400,-20.8800,-89.142,51.051,-1.511,49.17451803,-121.67761790,0.88999999,
3.7540,-0.7769,-0.8957,0.0957,3.1316,0.8308,2.9184,-0.2993,0.6839,-0.4016,849.3911,44.9400,25.4400,-20.8800,140.941,48.849,82.977,49.17451803,-121.67761790,0.88999999,
3.7590,-0.7769,-0.8957,0.0957,3.1316,0.8308,2.9184,-0.2993,0.6839,-0.4016,849.3911,45.4200,27.6600,-18.9000,142.935,48.849,82.977,49.17451803,-121.67761790,0.88999999,
3.7620,-0.7769,-0.8957,0.0957,3.1316,0.8308,2.9184,0.6679,0.4357,-0.3665,849.3911,45.4200,27.6600,-18.9000,142.935,48.849,82.977,49.17451803,-121.67761790,0.88999999,
3.7690,-0.7769,-0.8957,0.0957,3.1316,0.8308,2.9184,0.6679,0.4357,-0.3665,849.3247,45.4200,27.6600,-18.9000,142.935,48.849,82.977,49.17451803,-121.67761790,0.88999999,
3.7730,-0.7769,-0.8957,0.0957,3.1316,0.8308,2.9184,0.6679,0.4357,-0.3665,849.3247,45.4200,27.6600,-18.9000,142.935,48.849,82.977,49.17451803,-121.67761790,0.88999999,
3.7880,-0.7769,-0.8957,0.0957,-4.8579,-0.1832,-2.8973,0.6679,0.4357,-0.3665,849.3247,45.4200,27.6600,-18.9000,142.935,48.849,82.977,49.17451803,-121.67761790,0.88999999,
3.8140,-0.3034,-0.8810,0.5364,-4.8579,-0.1832,-2.8973,0.6679,0.4357,-0.3665,849.3247,45.4200,27.6600,-18.9000,-117.816,55.026,29.494,49.17451803,-121.67761790,0.88999999,
3.8170,-0.3034,-0.8810,0.5364,-4.8579,-0.1832,-2.8973,0.6679,0.4357,-0.3665,849.3247,45.8400,29.9400,-16.9200,-112.998,55.026,29.494,49.17451803,-121.67761790,0.88999999,
3.8200,-0.3034,-0.8810,0.5364,-4.8579,-0.1832,-2.8973,0.1236,0.0192,-0.4069,849.3247,45.8400,29.9400,-16.9200,-112.998,55.026,29.494,49.17451803,-121.67761790,0.88999999,
3.8490,-0.3034,-0.8810,0.5364,-0.4368,-0.1336,1.0765,0.1236,0.0192,-0.4069,849.3247,45.8400,29.9400,-16.9200,-112.998,55.026,29.494,49.17451803,-121.67761790,0.88999999,
3.8760,-0.3508,-0.9094,0.0253,-0.4368,-0.1336,1.0765,0.1236,0.0192,-0.4069,849.3247,45.8400,29.9400,-16.9200,157.630,68.854,85.868,49.17451803,-121.67761790,0.88999999,
3.8800,-0.3508,-0.9094,0.0253,-0.4368,-0.1336,1.0765,0.1236,0.0192,-0.4069,849.3247,46.0200,32.2200,-15.0600,160.023,68.854,85.868,49.17451803,-121.67761790,0.88999999,
3.8830,-0.3508,-0.9094,0.0253,-0.4368,-0.1336,1.0765,0.0245,0.0298,-0.4048,849.3247,46.0200,32.2200,-15.0600,160.023,68.854,85.868,49.17451803,-121.67761790,0.88999999,
3.9090,-0.3508,-0.9094,0.0253,-1.0730,-0.3147,-3.8341,0.0245,0.0298,-0.4048,849.3247,46.0200,32.2200,-15.0600,160.023,68.854,85.868,49.17451803,-121.67761790,0.88999999,
3.9340,-0.5722,-1.5446,0.2140,-1.0730,-0.3147,-3.8341,0.0245,0.0298,-0.4048,849.3247,46.0200,32.2200,-15.0600,-176.525,68.422,69.498,49.17451803,-121.67761790,0.88999999,
3.9390,-0.5722,-1.5446,0.2140,-1.0730,-0.3147,-3.8341,0.0245,0.0298,-0.4048,849.3247,46.1400,34.6200,-13.3200,-173.391,68.422,69.498,49.17451803,-121.67761790,0.88999999,
3.9420,-0.5722,-1.5446,0.2140,-1.0730,-0.3147,-3.8341,-0.3334,0.4112,-0.2386,849.3247,46.1400,34.6200,-13.3200,-173.391,68.422,69.498,49.17451803,-121.67761790,0.88999999,
3.9480,-0.5722,-1.5446,0.2140,-1.0730,-0.3147,-3.8341,-0.3334,0.4112,-0.2386,849.4075,46.1400,34.6200,-13.3200,-173.391,68.422,69.498,49.17451803,-121.67761790,0.88999999,
3.9510,-0.5722,-1.5446,0.2140,-1.0730,-0.3147,-3.8341,-0.3334,0.4112,-0.2386,849.4075,46.1400,34.6200,-13.3200,-173.391,68.422,69.498,49.17451803,-121.67761790,0.88999999,
3.9700,-0.5722,-1.5446,0.2140,-3.4600,-6.4346,-1.8822,-0.3334,0.4112,-0.2386,849.4075,46.1400,34.6200,-13.3200,-173.391,68.422,69.498,49.17451803,-121.67761790,0.88999999,
3.9920,-0.2218,-0.8786,0.4035,-3.4600,-6.4346,-1.8822,-0.3334,0.4112,-0.2386,849.4075,46.1400,34.6200,-13.3200,-112.304,62.340,28.798,49.17444565,-121.67781977,0.30000001,
3.9960,-0.2218,-0.8786,0.4035,-3.4600,-6.4346,-1.8822,-0.3334,0.4112,-0.2386,849.4075,46.1400,36.9600,-11.6400,-108.368,62.340,28.798,49.17444565,-121.67781977,0.30000001,
3.9990,-0.2218,-0.8786,0.4035,-3.4600,-6.4346,-1.8822,-0.0660,-0.1097,-0.0586,849.4075,46.1400,36.9600,-11.6400,-108.368,62.340,28.798,49.17444565,-121.67781977,0.30000001,
4.0300,-0.2218,-0.8786,0.4035,0.0118,0.0886,-0.0107,-0.0660,-0.1097,-0.0586,849.4075,46.1400,36.9600,-11.6400,-108.368,62.340,28.798,49.17444565,-121.67781977,0.30000001,
4.0600,-0.2140,-0.8253,0.4065,0.0118,0.0886,-0.0107,-0.0660,-0.1097,-0.0586,849.4075,46.1400,36.9600,-11.6400,-105.484,60.900,27.768,49.17444565,-121.67781977,0.30000001,
4.0650,-0.2140,-0.8253,0.4065,0.0118,0.0886,-0.0107,-0.0660,-0.1097,-0.0586,849.4075,46.1400,39.3000,-10.0800,-101.671,60.900,27.768,49.17444565,-121.67781977,0.30000001,
4.0700,-0.2140,-0.8253,0.4065,0.0118,0.0886,-0.0107,-0.1758,-0.2109,0.0639,849.4075,46.1400,39.3000,-10.0800,-101.671,60.900,27.768,49.17444565,-121.67781977,0.30000001,
4.0870,-0.2140,-0.8253,0.4065,0.0655,0.6347,0.0586,-0.1758,-0.2109,0.0639,849.4075,46.1400,39.3000,-10.0800,-101.671,60.900,27.768,49.17444565,-121.67781977,0.30000001,
4.1090,-0.2795,-0.9573,0.3405,0.0655,0.6347,0.0586,-0.1758,-0.2109,0.0639,849.4075,46.1400,39.3000,-10.0800,-120.501,65.289,39.379,49.17444565,-121.67781977,0.30000001,
4.1110,-0.2795,-0.9573,0.3405,0.0655,0.6347,0.0586,-0.1758,-0.2109,0.0639,849.4075,46.0200,41.4000,-8.6400,-116.927,65.289,39.379,49.17444565,-121.67781977,0.30000001,
4.1140,-0.2795,-0.9573,0.3405,0.0655,0.6347,0.0586,-0.4186,-0.1545,0.3047,849.4075,46.0200,41.4000,-8.6400,-116.927,65.289,39.379,49.17444565,-121.67781977,0.30000001,
4.1270,-0.2795,-0.9573,0.3405,0.0655,0.6347,0.0586,-0.4186,-0.1545,0.3047,849.4534,46.0200,41.4000,-8.6400,-116.927,65.289,39.379,49.17444565,-121.67781977,0.30000001,
4.1290,-0.2795,-0.9573,0.3405,0.0655,0.6347,0.0586,-0.4186,-0.1545,0.3047,849.4534,46.0200,41.4000,-8.6400,-116.927,65.289,39.379,49.17444565,-121.67781977,0.30000001,
4.1470,-0.2795,-0.9573,0.3405,-0.4646,-0.5961,-0.3808,-0.4186,-0.1545,0.3047,849.4534,46.0200,41.4000,-8.6400,-116.927,65.289,39.379,49.17444565,-121.67781977,0.30000001,
4.1710,-0.2448,-0.9138,0.2574,-0.4646,-0.5961,-0.3808,-0.4186,-0.1545,0.3047,849.4534,46.0200,41.4000,-8.6400,-126.661,68.755,43.558,49.17444565,-121.67781977,0.30000001,
4.1750,-0.2448,-0.9138,0.2574,-0.4646,-0.5961,-0.3808,-0.4186,-0.1545,0.3047,849.4534,45.7800,43.5000,-7.1400,-123.162,68.755,43.558,49.17444565,-121.67781977,0.30000001,
4.1780,-0.2448,-0.9138,0.2574,-0.4646,-0.5961,-0.3808,-0.1587,0.0501,0.5507,849.4534,45.7800,43.5000,-7.1400,-123.162,68.755,43.558,49.17444565,-121.67781977,0.30000001,
4.2080,-0.2448,-0.9138,0.2574,0.0547,-0.1543,-1.0406,-0.1587,0.0501,0.5507,849.4534,45.7800,43.5000,-7.1400,-123.162,68.755,43.558,49.17444565,-121.67781977,0.30000001,
4.2390,-0.2243,-1.0662,0.2750,0.0547,-0.1543,-1.0406,-0.1587,0.0501,0.5507,849.4534,45.7800,43.5000,-7.1400,-121.483,71.590,39.196,49.17444565,-121.67781977,0.30000001,
4.2430,-0.2243,-1.0662,0.2750,0.0547,-0.1543,-1.0406,-0.1587,0.0501,0.5507,849.4534,45.5400,45.2400,-5.8800,-118.778,71.590,39.196,49.17444565,-121.67781977,0.30000001,
4.2480,-0.2243,-1.0662,0.2750,0.0547,-0.1543,-1.0406,0.3483,0.2376,0.0383,849.4534,45.5400,45.2400,-5.8800,-118.778,71.590,39.196,49.17444565,-121.67781977,0.30000001,
4.2690,-0.2243,-1.0662,0.2750,0.3059,-1.6765,-0.9028,0.3483,0.2376,0.0383,849.4534,45.5400,45.2400,-5.8800,-118.778,71.590,39.196,49.17444565,-121.67781977,0.30000001,
4.2980,-0.2604,-0.7985,0.3894,0.3059,-1.6765,-0.9028,0.3483,0.2376,0.0383,849.4534,45.5400,45.2400,-5.8800,-95.223,59.601,33.777,49.17444565,-121.67781977,0.30000001,
4.3020,-0.2604,-0.7985,0.3894,0.3059,-1.6765,-0.9028,0.3483,0.2376,0.0383,849.4534,45.1200,46.6200,-4.9200,-92.591,59.601,33.777,49.17444565,-121.67781977,0.30000001,
4.3060,-0.2604,-0.7985,0.3894,0.3059,-1.6765,-0.9028,0.3941,0.4282,0.1214,849.4534,45.1200,46.6200,-4.9200,-92.591,59.601,33.777,49.17444565,-121.67781977,0.30000001,
4.3100,-0.2604,-0.7985,0.3894,0.3059,-1.6765,-0.9028,0.3941,0.4282,0.1214,849.3779,45.1200,46.6200,-4.9200,-92.591,59.601,33.777,49.17444565,-121.67781977,0.30000001,
4.3140,-0.2604,-0.7985,0.3894,0.3059,-1.6765,-0.9028,0.3941,0.4282,0.1214,849.3779,45.1200,46.6200,-4.9200,-92.591,59.601,33.777,49.17444565,-121.67781977,0.30000001,
4.3270,-0.2604,-0.7985,0.3894,0.0739,0.8323,0.0305,0.3941,0.4282,0.1214,849.3779,45.1200,46.6200,-4.9200,-92.591,59.601,33.777,49.17444565,-121.67781977,0.30000001,
4.3510,-0.4901,-0.9895,0.2711,0.0739,0.8323,0.0305,0.3941,0.4282,0.1214,849.3779,45.1200,46.6200,-4.9200,-127.523,60.489,61.048,49.17444565,-121.67781977,0.30000001,
4.3560,-0.4901,-0.9895,0.2711,0.0739,0.8323,0.0305,0.3941,0.4282,0.1214,849.3779,44.8200,47.7600,-4.0800,-124.211,60.489,61.048,49.17444565,-121.67781977,0.30000001,
4.3590,-0.4901,-0.9895,0.2711,0.0739,0.8323,0.0305,-0.0660,2.3542,-1.4136,849.3779,44.8200,47.7600,-4.0800,-124.211,60.489,61.048,49.17444565,-121.67781977,0.30000001,
4.3890,-0.4901,-0.9895,0.2711,-1.8555,-1.1530,-1.1485,-0.0660,2.3542,-1.4136,849.3779,44.8200,47.7600,-4.0800,-124.211,60.489,61.048,49.17444565,-121.67781977,0.30000001,
4.4230,-0.4842,-0.8195,0.3522,-1.8555,-1.1530,-1.1485,-0.0660,2.3542,-1.4136,849.3779,44.8200,47.7600,-4.0800,-97.473,53.845,53.967,49.17444565,-121.67781977,0.30000001,
4.4280,-0.4842,-0.8195,0.3522,-1.8555,-1.1530,-1.1485,-0.0660,2.3542,-1.4136,849.3779,44.5800,48.7200,-3.3000,-94.689,53.845,53.967,49.17444565,-121.67781977,0.30000001,
4.4330,-0.4842,-0.8195,0.3522,-1.8555,-1.1530,-1.1485,0.3089,2.0986,0.8586,849.3779,44.5800,48.7200,-3.3000,-94.689,53.845,53.967,49.17444565,-121.67781977,0.30000001,
4.4500,-0.4842,-0.8195,0.3522,-0.9585,0.2767,-0.1282,0.3089,2.0986,0.8586,849.3779,44.5800,48.7200,-3.3000,-94.689,53.845,53.967,49.17444565,-121.67781977,0.30000001,
4.4810,-0.4197,-0.7266,0.6161,-0.9585,0.2767,-0.1282,0.3089,2.0986,0.8586,849.3779,44.5800,48.7200,-3.3000,-66.152,44.267,34.266,49.17444565,-121.67781977,0.30000001,
4.4890,-0.4197,-0.7266,0.6161,-0.9585,0.2767,-0.1282,0.3089,2.0986,0.8586,849.3779,44.2800,49.5600,-2.7000,-64.766,44.267,34.266,49.17444565,-121.67781977,0.30000001,
4.4910,-0.4197,-0.7266,0.6161,-0.9585,0.2767,-0.1282,0.4527,2.0592,1.1675,849.3779,44.2800,49.5600,-2.7000,-64.766,44.267,34.266,49.17444565,-121.67781977,0.30000001,
4.4950,-0.4197,-0.7266,0.6161,-0.9585,0.2767,-0.1282,0.4527,2.0592,1.1675,849.4294,44.2800,49.5600,-2.7000,-64.766,44.267,34.266,49.17444565,-121.67781977,0.30000001,
4.4970,-0.4197,-0.7266,0.6161,-0.9585,0.2767,-0.1282,0.4527,2.0592,1.1675,849.4294,44.2800,49.5600,-2.7000,-64.766,44.267,34.266,49.17444565,-121.67781977,0.30000001,
4.5050,-0.4197,-0.7266,0.6161,0.6796,0.8162,2.8437,0.4527,2.0592,1.1675,849.4294,44.2800,49.5600,-2.7000,-64.766,44.267,34.266,49.17444565,-121.67781977,0.30000001,
4.5290,-0.7989,-0.4877,0.3307,0.6796,0.8162,2.8437,0.4527,2.0592,1.1675,849.4294,44.2800,49.5600,-2.7000,-32.628,29.425,67.511,49.17444565,-121.67781977,0.30000001,
4.5300,-0.7989,-0.4877,0.3307,0.6796,0.8162,2.8437,0.4527,2.0592,1.1675,849.4294,43.9200,50.5200,-2.4600,-31.610,29.425,67.511,49.17444565,-121.67781977,0.30000001,
4.5320,-0.7989,-0.4877,0.3307,0.6796,0.8162,2.8437,0.3345,-1.5564,0.3462,849.4294,43.9200,50.5200,-2.4600,-31.610,29.425,67.511,49.17444565,-121.67781977,0.30000001,
4.5670,-0.7989,-0.4877,0.3307,-2.5585,2.8520,0.0548,0.3345,-1.5564,0.3462,849.4294,43.9200,50.5200,-2.4600,-31.610,29.425,67.511,49.17444565,-121.67781977,0.30000001,
4.5970,-0.6948,-0.8590,0.0991,-2.5585,2.8520,0.0548,0.3345,-1.5564,0.3462,849.4294,43.9200,50.5200,-2.4600,-117.678,50.751,81.880,49.17444565,-121.67781977,0.30000001,
4.6000,-0.6948,-0.8590,0.0991,-2.5585,2.8520,0.0548,0.3345,-1.5564,0.3462,849.4294,42.6000,51.0000,-3.6000,-107.753,50.751,81.880,49.17444565,-121.67781977,0.30000001,
4.6030,-0.6948,-0.8590,0.0991,-2.5585,2.8520,0.0548,1.0408,0.6637,-0.1001,849.4294,42.6000,51.0000,-3.6000,-107.753,50.751,81.880,49.17444565,-121.67781977,0.30000001,
4.6250,-0.6948,-0.8590,0.0991,-1.0230,-1.1745,-2.2247,1.0408,0.6637,-0.1001,849.4294,42.6000,51.0000,-3.6000,-107.753,50.751,81.880,49.17444565,-121.67781977,0.30000001,
4.6470,-0.4490,-0.8244,0.1925,-1.0230,-1.1745,-2.2247,1.0408,0.6637,-0.1001,849.4294,42.6000,51.0000,-3.6000,-123.458,59.348,66.800,49.17444565,-121.67781977,0.30000001,
4.6490,-0.4490,-0.8244,0.1925,-1.0230,-1.1745,-2.2247,1.0408,0.6637,-0.1001,849.4294,41.0400,51.0000,-5.4000,-126.464,59.348,66.800,49.17444565,-121.67781977,0.30000001,
4.6500,-0.4490,-0.8244,0.1925,-1.0230,-1.1745,-2.2247,0.4751,-0.4432,0.1779,849.4294,41.0400,51.0000,-5.4000,-126.464,59.348,66.800,49.17444565,-121.67781977,0.30000001,
4.6640,-0.4490,-0.8244,0.1925,-1.0230,-1.1745,-2.2247,0.4751,-0.4432,0.1779,849.3870,41.0400,51.0000,-5.4000,-126.464,59.348,66.800,49.17444565,-121.67781977,0.30000001,
4.6650,-0.4490,-0.8244,0.1925,-1.0230,-1.1745,-2.2247,0.4751,-0.4432,0.1779,849.3870,41.0400,51.0000,-5.4000,-126.464,59.348,66.800,49.17444565,-121.67781977,0.30000001,
4.6890,-0.4490,-0.8244,0.1925,1.2382,-0.8207,-1.5341,0.4751,-0.4432,0.1779,849.3870,41.0400,51.0000,-5.4000,-126.464,59.348,66.800,49.17444565,-121.67781977,0.30000001,
4.7110,-0.6860,-0.5830,0.4597,1.2382,-0.8207,-1.5341,0.4751,-0.4432,0.1779,849.3870,41.0400,51.0000,-5.4000,-42.173,35.220,56.172,49.17444565,-121.67781977,0.30000001,
4.7170,-0.6860,-0.5830,0.4597,1.2382,-0.8207,-1.5341,0.4751,-0.4432,0.1779,849.3870,39.4800,50.8800,-7.3800,-38.003,35.220,56.172,49.17444565,-121.67781977,0.30000001,
4.7200,-0.6860,-0.5830,0.4597,1.2382,-0.8207,-1.5341,-0.1694,-0.5582,0.1811,849.3870,39.4800,50.8800,-7.3800,-38.003,35.220,56.172,49.17444565,-121.67781977,0.30000001,
4.7470,-0.6860,-0.5830,0.4597,-0.9701,1.2213,0.6337,-0.1694,-0.5582,0.1811,849.3870,39.4800,50.8800,-7.3800,-38.003,35.220,56.172,49.17444565,-121.67781977,0.30000001,
4.7720,-0.5282,-0.8263,0.4710,-0.9701,1.2213,0.6337,-0.1694,-0.5582,0.1811,849.3870,39.4800,50.8800,-7.3800,-71.410,49.423,48.278,49.17444565,-121.67781977,0.30000001,
4.7770,-0.5282,-0.8263,0.4710,-0.9701,1.2213,0.6337,-0.1694,-0.5582,0.1811,849.3870,37.9200,50.7000,-9.4800,-69.776,49.423,48.278,49.17444565,-121.67781977,0.30000001,
4.7800,-0.5282,-0.8263,0.4710,-0.9701,1.2213,0.6337,-0.6360,-0.7052,-0.0511,849.3870,37.9200,50.7000,-9.4800,-69.776,49.423,48.278,49.17444565,-121.67781977,0.30000001,
4.8100,-0.5282,-0.8263,0.4710,0.3281,-0.9927,0.6924,-0.6360,-0.7052,-0.0511,849.3870,37.9200,50.7000,-9.4800,-69.776,49.423,48.278,49.17444565,-121.67781977,0.30000001,
4.8310,-0.4334,-0.9353,0.4197,0.3281,-0.9927,0.6924,-0.6360,-0.7052,-0.0511,849.3870,37.9200,50.7000,-9.4800,-92.786,57.177,45.923,49.17444565,-121.67781977,0.30000001,
4.8350,-0.4334,-0.9353,0.4197,0.3281,-0.9927,0.6924,-0.6360,-0.7052,-0.0511,849.3870,36.3000,50.4600,-11.7000,-94.758,57.177,45.923,49.17444565,-121.67781977,0.30000001,
4.8400,-0.4334,-0.9353,0.4197,0.3281,-0.9927,0.6924,-0.5348,-0.4666,0.2834,849.3870,36.3000,50.4600,-11.7000,-94.758,57.177,45.923,49.17444565,-121.67781977,0.30000001,
4.8450,-0.4334,-0.9353,0.4197,0.3281,-0.9927,0.6924,-0.5348,-0.4666,0.2834,849.4214,36.3000,50.4600,-11.7000,-94.758,57.177,45.923,49.17444565,-121.67781977,0.30000001,
4.8490,-0.4334,-0.9353,0.4197,0.3281,-0.9927,0.6924,-0.5348,-0.4666,0.2834,849.4214,36.3000,50.4600,-11.7000,-94.758,57.177,45.923,49.17444565,-121.67781977,0.30000001,
4.8660,-0.4334,-0.9353,0.4197,1.1140,-1.9094,0.2690,-0.5348,-0.4666,0.2834,849.4214,36.3000,50.4600,-11.7000,-94.758,57.177,45.923,49.17444565,-121.67781977,0.30000001,
4.8900,-0.3562,-0.8341,0.2965,1.1140,-1.9094,0.2690,-0.5348,-0.4666,0.2834,849.4214,36.3000,50.4600,-11.7000,-114.284,60.942,50.223,49.17444565,-121.67781977,0.30000001,
4.8930,-0.3562,-0.8341,0.2965,1.1140,-1.9094,0.2690,-0.5348,-0.4666,0.2834,849.4214,34.6800,50.1000,-13.9800,-120.657,60.942,50.223,49.17444565,-121.67781977,0.30000001,
4.8960,-0.3562,-0.8341,0.2965,1.1140,-1.9094,0.2690,0.0554,-0.1694,0.2056,849.4214,34.6800,50.1000,-13.9800,-120.657,60.942,50.223,49.17444565,-121.67781977,0.30000001,
4.9340,-0.3562,-0.8341,0.2965,1.8138,-0.8841,-0.9520,0.0554,-0.1694,0.2056,849.4214,34.6800,50.1000,-13.9800,-120.657,60.942,50.223,49.17444565,-121.67781977,0.30000001,
4.9610,-0.2829,-0.7550,0.2990,1.8138,-0.8841,-0.9520,0.0554,-0.1694,0.2056,849.4214,34.6800,50.1000,-13.9800,-110.617,61.401,43.419,49.17444565,-121.67781977,0.30000001,
4.9720,-0.2829,-0.7550,0.2990,1.8138,-0.8841,-0.9520,0.0554,-0.1694,0.2056,849.4214,33.1200,49.6800,-16.2000,-116.835,61.401,43.419,49.17444565,-121.67781977,0.30000001,
4.9740,-0.2829,-0.7550,0.2990,1.8138,-0.8841,-0.9520,0.3409,0.2535,0.1300,849.4214,33.1200,49.6800,-16.2000,-116.835,61.401,43.419,49.17444565,-121.67781977,0.30000001,
4.9840,-0.2829,-0.7550,0.2990,2.4933,-0.1386,-1.0365,0.3409,0.2535,0.1300,849.4214,33.1200,49.6800,-16.2000,-116.835,61.401,43.419,49.17439024,-121.67782870,0.00000000,
5.0070,-0.4334,-0.7721,0.1749,2.4933,-0.1386,-1.0365,0.3409,0.2535,0.1300,849.4214,33.1200,49.6800,-16.2000,155.355,58.813,68.028,49.17439024,-121.67782870,0.00000000,
5.0110,-0.4334,-0.7721,0.1749,2.4933,-0.1386,-1.0365,0.3409,0.2535,0.1300,849.4214,31.5600,49.0800,-18.5400,135.901,58.813,68.028,49.17439024,-121.67782870,0.00000000,
5.0120,-0.4334,-0.7721,0.1749,2.4933,-0.1386,-1.0365,0.2727,0.5273,-0.0650,849.4214,31.5600,49.0800,-18.5400,135.901,58.813,68.028,49.17439024,-121.67782870,0.00000000,
5.0230,-0.4334,-0.7721,0.1749,2.4933,-0.1386,-1.0365,0.2727,0.5273,-0.0650,849.4312,31.5600,49.0800,-18.5400,135.901,58.813,68.028,49.17439024,-121.67782870,0.00000000,
5.0240,-0.4334,-0.7721,0.1749,2.4933,-0.1386,-1.0365,0.2727,0.5273,-0.0650,849.4312,31.5600,49.0800,-18.5400,135.901,58.813,68.028,49.17439024,-121.67782870,0.00000000,
5.0450,-0.4334,-0.7721,0.1749,1.0990,-0.2871,-2.1075,0.2727,0.5273,-0.0650,849.4312,31.5600,49.0800,-18.5400,135.901,58.813,68.028,49.17439024,-121.67782870,0.00000000,
5.0700,-0.3836,-0.7471,0.3991,1.0990,-0.2871,-2.1075,0.2727,0.5273,-0.0650,849.4312,31.5600,49.0800,-18.5400,-84.778,53.465,43.860,49.17439024,-121.67782870,0.00000000,
5.0720,-0.3836,-0.7471,0.3991,1.0990,-0.2871,-2.1075,0.2727,0.5273,-0.0650,849.4312,29.9400,48.3600,-20.7600,-89.261,53.465,43.860,49.17439024,-121.67782870,0.00000000,
5.0770,-0.3836,-0.7471,0.3991,1.0990,-0.2871,-2.1075,0.1928,0.5816,-0.1129,849.4312,29.9400,48.3600,-20.7600,-89.261,53.465,43.860,49.17439024,-121.67782870,0.00000000,
5.1060,-0.3836,-0.7471,0.3991,1.5817,-0.0227,0.1211,0.1928,0.5816,-0.1129,849.4312,29.9400,48.3600,-20.7600,-89.261,53.465,43.860,49.17439024,-121.67782870,0.00000000,
5.1410,-0.5590,-0.7242,0.3337,1.5817,-0.0227,0.1211,0.1928,0.5816,-0.1129,849.4312,29.9400,48.3600,-20.7600,25.087,48.047,59.166,49.17439024,-121.67782870,0.00000000,
5.1500,-0.5590,-0.7242,0.3337,1.5817,-0.0227,0.1211,0.1928,0.5816,-0.1129,849.4312,28.4400,47.5200,-23.0400,47.181,48.047,59.166,49.17439024,-121.67782870,0.00000000,
5.1560,-0.5590,-0.7242,0.3337,1.5817,-0.0227,0.1211,0.1896,0.9246,0.0735,849.4312,28.4400,47.5200,-23.0400,47.181,48.047,59.166,49.17439024,-121.67782870,0.00000000,
5.1640,-0.5590,-0.7242,0.3337,0.0245,0.1797,-0.3278,0.1896,0.9246,0.0735,849.4312,28.4400,47.5200,-23.0400,47.181,48.047,59.166,49.17439024,-121.67782870,0.00000000,
5.1990,-0.5590,-0.7242,0.3337,0.0245,0.1797,-0.3278,0.1896,0.9246,0.0735,849.4312,26.9400,46.7400,-25.2600,60.745,48.047,59.166,49.17439024,-121.67782870,0.00000000,
5.2010,-0.5590,-0.7242,0.3337,0.0245,0.1797,-0.3278,-0.0597,0.8032,-0.1779,849.4312,26.9400,46.7400,-25.2600,60.745,48.047,59.166,49.17439024,-121.67782870,0.00000000,
5.2030,-0.7202,-0.9724,0.4104,0.0245,0.1797,-0.3278,-0.0597,0.8032,-0.1779,849.4312,26.9400,46.7400,-25.2600,70.839,49.554,60.326,49.17439024,-121.67782870,0.00000000,
5.2050,-0.7202,-0.9724,0.4104,0.0245,0.1797,-0.3278,-0.0597,0.8032,-0.1779,849.4785,26.9400,46.7400,-25.2600,70.839,49.554,60.326,49.17439024,-121.67782870,0.00000000,
5.2070,-0.7202,-0.9724,0.4104,0.0245,0.1797,-0.3278,-0.0597,0.8032,-0.1779,849.4785,26.9400,46.7400,-25.2600,70.839,49.554,60.326,49.17439024,-121.67782870,0.00000000,
5.2230,-0.7202,-0.9724,0.4104,-1.4314,-2.2136,0.7068,-0.0597,0.8032,-0.1779,849.4785,26.9400,46.7400,-25.2600,70.839,49.554,60.326,49.17439024,-121.67782870,0.00000000,
5.2470,-0.5849,-0.7559,0.3571,-1.4314,-2.2136,0.7068,-0.0597,0.8032,-0.1779,849.4785,26.9400,46.7400,-25.2600,58.523,47.807,58.592,49.17439024,-121.67782870,0.00000000,
5.2600,-0.5849,-0.7559,0.3571,-1.4314,-2.2136,0.7068,-0.0597,0.8032,-0.1779,849.4785,25.5600,45.9600,-27.5400,68.206,47.807,58.592,49.17439024,-121.67782870,0.00000000,
5.2610,-0.5849,-0.7559,0.3571,-1.4314,-2.2136,0.7068,0.0767,0.7478,-0.0660,849.4785,25.5600,45.9600,-27.5400,68.206,47.807,58.592,49.17439024,-121.67782870,0.00000000,
5.2830,-0.5849,-0.7559,0.3571,-0.0284,-0.0649,0.3824,0.0767,0.7478,-0.0660,849.4785,25.5600,45.9600,-27.5400,68.206,47.807,58.592,49.17439024,-121.67782870,0.00000000,
5.3060,-0.5018,-0.6348,0.4324,-0.0284,-0.0649,0.3824,0.0767,0.7478,-0.0660,849.4785,25.5600,45.9600,-27.5400,29.635,43.781,49.251,49.17439024,-121.67782870,0.00000000,
5.3080,-0.5018,-0.6348,0.4324,-0.0284,-0.0649,0.3824,0.0767,0.7478,-0.0660,849.4785,24.1800,45.1800,-29.5200,44.859,43.781,49.251,49.17439024,-121.67782870,0.00000000,
5.3100,-0.5018,-0.6348,0.4324,-0.0284,-0.0649,0.3824,0.1236,0.3643,-0.4698,849.4785,24.1800,45.1800,-29.5200,44.859,43.781,49.251,49.17439024,-121.67782870,0.00000000,
5.3430,-0.5018,-0.6348,0.4324,0.6939,1.1937,1.1217,0.1236,0.3643,-0.4698,849.4785,24.1800,45.1800,-29.5200,44.859,43.781,49.251,49.17439024,-121.67782870,0.00000000,
5.3660,-0.5819,-0.5932,-0.1085,0.6939,1.1937,1.1217,0.1236,0.3643,-0.4698,849.4785,24.1800,45.1800,-29.5200,60.511,45.061,100.564,49.17439024,-121.67782870,0.00000000,
5.3670,-0.5819,-0.5932,-0.1085,0.6939,1.1937,1.1217,0.1236,0.3643,-0.4698,849.4785,22.8000,44.3400,-31.4400,60.894,45.061,100.564,49.17439024,-121.67782870,0.00000000,
5.3690,-0.5819,-0.5932,-0.1085,0.6939,1.1937,1.1217,-0.0650,0.0884,-0.7137,849.4785,22.8000,44.3400,-31.4400,60.894,45.061,100.564,49.17439024,-121.67782870,0.00000000,
5.3820,-0.5819,-0.5932,-0.1085,0.6939,1.1937,1.1217,-0.0650,0.0884,-0.7137,849.2673,22.8000,44.3400,-31.4400,60.894,45.061,100.564,49.17439024,-121.67782870,0.00000000,
5.3840,-0.5819,-0.5932,-0.1085,0.6939,1.1937,1.1217,-0.0650,0.0884,-0.7137,849.2673,22.8000,44.3400,-31.4400,60.894,45.061,100.564,49.17439024,-121.67782870,0.00000000,
5.4040,-0.5819,-0.5932,-0.1085,-0.3251,1.7858,-4.1451,-0.0650,0.0884,-0.7137,849.2673,22.8000,44.3400,-31.4400,60.894,45.061,100.564,49.17439024,-121.67782870,0.00000000,
5.4280,-0.6259,-0.8287,0.0727,-0.3251,1.7858,-4.1451,-0.0650,0.0884,-0.7137,849.2673,22.8000,44.3400,-31.4400,78.305,52.753,83.371,49.17439024,-121.67782870,0.00000000,
5.4310,-0.6259,-0.8287,0.0727,-0.3251,1.7858,-4.1451,-0.0650,0.0884,-0.7137,849.2673,21.4200,43.5000,-33.3000,78.312,52.753,83.371,49.17439024,-121.67782870,0.00000000,
5.4340,-0.6259,-0.8287,0.0727,-0.3251,1.7858,-4.1451,-0.9460,0.3675,-0.4155,849.2673,21.4200,43.5000,-33.3000,78.312,52.753,83.371,49.17439024,-121.67782870,0.00000000,
5.4630,-0.6259,-0.8287,0.0727,-0.9448,-0.2335,-1.9363,-0.9460,0.3675,-0.4155,849.2673,21.4200,43.5000,-33.3000,78.312,52.753,83.371,49.17439024,-121.67782870,0.00000000,
5.4890,-0.6709,-0.9397,0.2897,-0.9448,-0.2335,-1.9363,-0.9460,0.3675,-0.4155,849.2673,21.4200,43.5000,-33.3000,88.030,52.129,66.645,49.17439024,-121.67782870,0.00000000,
5.4920,-0.6709,-0.9397,0.2897,-0.9448,-0.2335,-1.9363,-0.9460,0.3675,-0.4155,849.2673,20.1600,42.4200,-34.6200,88.564,52.129,66.645,49.17439024,-121.67782870,0.00000000,
5.4970,-0.6709,-0.9397,0.2897,-0.9448,-0.2335,-1.9363,-0.7787,0.0181,0.0575,849.2673,20.1600,42.4200,-34.6200,88.564,52.129,66.645,49.17439024,-121.67782870,0.00000000,
5.5240,-0.6709,-0.9397,0.2897,-1.3421,-1.2246,0.5923,-0.7787,0.0181,0.0575,849.2673,20.1600,42.4200,-34.6200,88.564,52.129,66.645,49.17439024,-121.67782870,0.00000000,
5.5550,-0.6342,-0.9861,0.4197,-1.3421,-1.2246,0.5923,-0.7787,0.0181,0.0575,849.2673,20.1600,42.4200,-34.6200,98.129,52.360,56.508,49.17439024,-121.67782870,0.00000000,
5.5600,-0.6342,-0.9861,0.4197,-1.3421,-1.2246,0.5923,-0.7787,0.0181,0.0575,849.2673,19.8000,41.7000,-34.5000,98.555,52.360,56.508,49.17439024,-121.67782870,0.00000000,
5.5620,-0.6342,-0.9861,0.4197,-1.3421,-1.2246,0.5923,-0.3068,0.1854,0.2173,849.2673,19.8000,41.7000,-34.5000,98.555,52.360,56.508,49.17439024,-121.67782870,0.00000000,
5.5640,-0.6342,-0.9861,0.4197,-1.3421,-1.2246,0.5923,-0.3068,0.1854,0.2173,849.3118,19.8000,41.7000,-34.5000,98.555,52.360,56.508,49.17439024,-121.67782870,0.00000000,
5.5660,-0.6342,-0.9861,0.4197,-1.3421,-1.2246,0.5923,-0.3068,0.1854,0.2173,849.3118,19.8000,41.7000,-34.5000,98.555,52.360,56.508,49.17439024,-121.67782870,0.00000000,
5.5830,-0.6342,-0.9861,0.4197,-0.9104,-1.6940,1.9880,-0.3068,0.1854,0.2173,849.3118,19.8000,41.7000,-34.5000,98.555,52.360,56.508,49.17439024,-121.67782870,0.00000000,
5.6090,-0.5091,-0.8942,0.2496,-0.9104,-1.6940,1.9880,-0.3068,0.1854,0.2173,849.3118,19.8000,41.7000,-34.5000,103.901,57.621,63.882,49.17439024,-121.67782870,0.00000000,
5.6130,-0.5091,-0.8942,0.2496,-0.9104,-1.6940,1.9880,-0.3068,0.1854,0.2173,849.3118,19.6200,41.4000,-33.8400,103.667,57.621,63.882,49.17439024,-121.67782870,0.00000000,
5.6190,-0.5091,-0.8942,0.2496,-0.9104,-1.6940,1.9880,0.1662,-0.0905,0.1140,849.3118,19.6200,41.4000,-33.8400,103.667,57.621,63.882,49.17439024,-121.67782870,0.00000000,
5.6440,-0.5091,-0.8942,0.2496,0.2936,-0.8220,0.1673,0.1662,-0.0905,0.1140,849.3118,19.6200,41.4000,-33.8400,103.667,57.621,63.882,49.17439024,-121.67782870,0.00000000,
5.6800,-0.4959,-0.7261,0.1514,0.2936,-0.8220,0.1673,0.1662,-0.0905,0.1140,849.3118,19.6200,41.4000,-33.8400,88.394,54.469,73.023,49.17439024,-121.67782870,0.00000000,
5.6840,-0.4959,-0.7261,0.1514,0.2936,-0.8220,0.1673,0.1662,-0.0905,0.1140,849.3118,19.5000,41.2200,-33.0600,87.965,54.469,73.023,49.17439024,-121.67782870,0.00000000,
5.6890,-0.4959,-0.7261,0.1514,0.2936,-0.8220,0.1673,0.1715,-0.1225,0.0288,849.3118,19.5000,41.2200,-33.0600,87.965,54.469,73.023,49.17439024,-121.67782870,0.00000000,
5.7050,-0.4959,-0.7261,0.1514,0.3828,0.8002,-0.9683,0.1715,-0.1225,0.0288,849.3118,19.5000,41.2200,-33.0600,87.965,54.469,73.023,49.17439024,-121.67782870,0.00000000,
5.7400,-0.4671,-0.8375,0.2653,0.3828,0.8002,-0.9683,0.1715,-0.1225,0.0288,849.3118,19.5000,41.2200,-33.0600,106.770,57.325,60.409,49.17439024,-121.67782870,0.00000000,
5.7420,-0.4671,-0.8375,0.2653,0.3828,0.8002,-0.9683,0.1715,-0.1225,0.0288,849.3118,19.3200,41.0400,-32.2800,106.255,57.325,60.409,49.17439024,-121.67782870,0.00000000,
5.7430,-0.4671,-0.8375,0.2653,0.3828,0.8002,-0.9683,0.1193,0.0234,0.1726,849.3118,19.3200,41.0400,-32.2800,106.255,57.325,60.409,49.17439024,-121.67782870,0.00000000,
5.7450,-0.4671,-0.8375,0.2653,0.3828,0.8002,-0.9683,0.1193,0.0234,0.1726,849.4583,19.3200,41.0400,-32.2800,106.255,57.325,60.409,49.17439024,-121.67782870,0.00000000,
5.7470,-0.4671,-0.8375,0.2653,0.3828,0.8002,-0.9683,0.1193,0.0234,0.1726,849.4583,19.3200,41.0400,-32.2800,106.255,57.325,60.409,49.17439024,-121.67782870,0.00000000,
5.7620,-0.4671,-0.8375,0.2653,0.6130,-0.2725,0.0985,0.1193,0.0234,0.1726,849.4583,19.3200,41.0400,-32.2800,106.255,57.325,60.409,49.17439024,-121.67782870,0.00000000,
5.8000,-0.5487,-0.8757,0.1490,0.6130,-0.2725,0.0985,0.1193,0.0234,0.1726,849.4583,19.3200,41.0400,-32.2800,90.837,57.004,74.811,49.17439024,-121.67782870,0.00000000,
5.8070,-0.5487,-0.8757,0.1490,0.6130,-0.2725,0.0985,0.1193,0.0234,0.1726,849.4583,19.2000,40.8600,-31.3800,90.419,57.004,74.811,49.17439024,-121.67782870,0.00000000,
5.8130,-0.5487,-0.8757,0.1490,0.6130,-0.2725,0.0985,0.1694,0.2866,0.1641,849.4583,19.2000,40.8600,-31.3800,90.419,57.004,74.811,49.17439024,-121.67782870,0.00000000,
5.8220,-0.5487,-0.8757,0.1490,-0.0746,-0.7096,-1.0069,0.1694,0.2866,0.1641,849.4583,19.2000,40.8600,-31.3800,90.419,57.004,74.811,49.17439024,-121.67782870,0.00000000,
5.8440,-0.5389,-0.7252,0.1939,-0.0746,-0.7096,-1.0069,0.1694,0.2866,0.1641,849.4583,19.2000,40.8600,-31.3800,83.039,51.697,70.211,49.17439024,-121.67782870,0.00000000,
5.8460,-0.5389,-0.7252,0.1939,-0.0746,-0.7096,-1.0069,0.1694,0.2866,0.1641,849.4583,19.0800,40.6800,-30.4800,82.241,51.697,70.211,49.17439024,-121.67782870,0.00000000,
5.8480,-0.5389,-0.7252,0.1939,-0.0746,-0.7096,-1.0069,0.1491,0.1193,0.0937,849.4583,19.0800,40.6800,-30.4800,82.241,51.697,70.211,49.17439024,-121.67782870,0.00000000,
5.8830,-0.5389,-0.7252,0.1939,0.0547,0.7338,-0.5941,0.1491,0.1193,0.0937,849.4583,19.0800,40.6800,-30.4800,82.241,51.697,70.211,49.17439024,-121.67782870,0.00000000,
5.9080,-0.5731,-0.7447,0.2164,0.0547,0.7338,-0.5941,0.1491,0.1193,0.0937,849.4583,19.0800,40.6800,-30.4800,80.242,50.558,69.316,49.17439024,-121.67782870,0.00000000,
5.9110,-0.5731,-0.7447,0.2164,0.0547,0.7338,-0.5941,0.1491,0.1193,0.0937,849.4583,18.9600,40.5000,-29.5200,79.231,50.558,69.316,49.17439024,-121.67782870,0.00000000,
5.9140,-0.5731,-0.7447,0.2164,0.0547,0.7338,-0.5941,-0.2727,-0.0437,0.0011,849.4583,18.9600,40.5000,-29.5200,79.231,50.558,69.316,49.17439024,-121.67782870,0.00000000,
5.9220,-0.5731,-0.7447,0.2164,0.0547,0.7338,-0.5941,-0.2727,-0.0437,0.0011,849.5183,18.9600,40.5000,-29.5200,79.231,50.558,69.316,49.17439024,-121.67782870,0.00000000,
5.9240,-0.5731,-0.7447,0.2164,0.0547,0.7338,-0.5941,-0.2727,-0.0437,0.0011,849.5183,18.9600,40.5000,-29.5200,79.231,50.558,69.316,49.17439024,-121.67782870,0.00000000,
5.9440,-0.5731,-0.7447,0.2164,-0.1888,0.5244,-0.2279,-0.2727,-0.0437,0.0011,849.5183,18.9600,40.5000,-29.5200,79.231,50.558,69.316,49.17439024,-121.67782870,0.00000000,
5.9660,-0.4769,-0.8986,0.2980,-0.1888,0.5244,-0.2279,-0.2727,-0.0437,0.0011,849.5183,18.9600,40.5000,-29.5200,109.838,57.963,58.000,49.17439024,-121.67782870,0.00000000,
5.9690,-0.4769,-0.8986,0.2980,-0.1888,0.5244,-0.2279,-0.2727,-0.0437,0.0011,849.5183,18.8400,40.4400,-28.5600,109.069,57.963,58.000,49.17439024,-121.67782870,0.00000000,
5.9710,-0.4769,-0.8986,0.2980,-0.1888,0.5244,-0.2279,-0.5848,0.1268,0.2706,849.5183,18.8400,40.4400,-28.5600,109.069,57.963,58.000,49.17439024,-121.67782870,0.00000000,
6.0030,-0.4769,-0.8986,0.2980,0.7524,-0.9246,0.7741,-0.5848,0.1268,0.2706,849.5183,18.8400,40.4400,-28.5600,109.069,57.963,58.000,49.17439024,-121.67782870,0.00000000,
6.0290,-0.4055,-0.9504,0.3674,0.7524,-0.9246,0.7741,-0.5848,0.1268,0.2706,849.5183,18.8400,40.4400,-28.5600,135.071,60.069,47.827,49.17439024,-121.67782870,0.00000000,
6.0320,-0.4055,-0.9504,0.3674,0.7524,-0.9246,0.7741,-0.5848,0.1268,0.2706,849.5183,18.7800,40.3800,-27.5400,135.491,60.069,47.827,49.17439024,-121.67782870,0.00000000,
6.0360,-0.4055,-0.9504,0.3674,0.7524,-0.9246,0.7741,0.0874,0.1523,-0.0490,849.5183,18.7800,40.3800,-27.5400,135.491,60.069,47.827,49.17439024,-121.67782870,0.00000000,
6.0660,-0.4055,-0.9504,0.3674,1.3864,-1.3974,1.4187,0.0874,0.1523,-0.0490,849.5183,18.7800,40.3800,-27.5400,135.491,60.069,47.827,49.17439024,-121.67782870,0.00000000,
6.0950,-0.4256,-0.7525,0.0884,1.3864,-1.3974,1.4187,0.0874,0.1523,-0.0490,849.5183,18.7800,40.3800,-27.5400,91.422,59.989,78.268,49.17439024,-121.67782870,0.00000000,
6.1040,-0.4256,-0.7525,0.0884,1.3864,-1.3974,1.4187,0.0874,0.1523,-0.0490,849.5183,18.7200,40.4400,-26.5200,90.812,59.989,78.268,49.17439024,-121.67782870,0.00000000,
6.1100,-0.4256,-0.7525,0.0884,1.3864,-1.3974,1.4187,0.1662,0.1949,0.0107,849.5183,18.7200,40.4400,-26.5200,90.812,59.989,78.268,49.17439024,-121.67782870,0.00000000,
6.1160,-0.4256,-0.7525,0.0884,1.3864,-1.3974,1.4187,0.1662,0.1949,0.0107,849.3726,18.7200,40.4400,-26.5200,90.812,59.989,78.268,49.17439024,-121.67782870,0.00000000,
6.1210,-0.4256,-0.7525,0.0884,1.3864,-1.3974,1.4187,0.1662,0.1949,0.0107,849.3726,18.7200,40.4400,-26.5200,90.812,59.989,78.268,49.17439024,-121.67782870,0.00000000,
6.1250,-0.4256,-0.7525,0.0884,1.0859,0.5890,-1.3958,0.1662,0.1949,0.0107,849.3726,18.7200,40.4400,-26.5200,90.812,59.989,78.268,49.17439024,-121.67782870,0.00000000,
6.1480,-0.4485,-0.9959,0.4280,1.0859,0.5890,-1.3958,0.1662,0.1949,0.0107,849.3726,18.7200,40.4400,-26.5200,132.133,58.096,46.345,49.17439024,-121.67782870,0.00000000,
6.1540,-0.4485,-0.9959,0.4280,1.0859,0.5890,-1.3958,0.1662,0.1949,0.0107,849.3726,18.6600,40.5000,-25.5000,131.927,58.096,46.345,49.17439024,-121.67782870,0.00000000,
6.1590,-0.4485,-0.9959,0.4280,1.0859,0.5890,-1.3958,0.4282,0.7691,0.7254,849.3726,18.6600,40.5000,-25.5000,131.927,58.096,46.345,49.17439024,-121.67782870,0.00000000,
6.1830,-0.4485,-0.9959,0.4280,0.8733,-1.8256,1.8568,0.4282,0.7691,0.7254,849.3726,18.6600,40.5000,-25.5000,131.927,58.096,46.345,49.17439024,-121.67782870,0.00000000,
6.2090,-1.0007,-1.2929,0.4133,0.8733,-1.8256,1.8568,0.4282,0.7691,0.7254,849.3726,18.6600,40.5000,-25.5000,72.089,50.058,67.558,49.17439024,-121.67782870,0.00000000,
6.2120,-1.0007,-1.2929,0.4133,0.8733,-1.8256,1.8568,0.4282,0.7691,0.7254,849.3726,18.7200,40.5600,-24.3000,69.708,50.058,67.558,49.17439024,-121.67782870,0.00000000,
6.2160,-1.0007,-1.2929,0.4133,0.8733,-1.8256,1.8568,-0.0767,0.9012,-0.3515,849.3726,18.7200,40.5600,-24.3000,69.708,50.058,67.558,49.17439024,-121.67782870,0.00000000,
6.2430,-1.0007,-1.2929,0.4133,-4.3293,-4.8709,1.7414,-0.0767,0.9012,-0.3515,849.3726,18.7200,40.5600,-24.3000,69.708,50.058,67.558,49.17439024,-121.67782870,0.00000000,
6.2700,-0.3850,-0.8146,0.2975,-4.3293,-4.8709,1.7414,-0.0767,0.9012,-0.3515,849.3726,18.7200,40.5600,-24.3000,120.981,59.149,52.307,49.17439024,-121.67782870,0.00000000,
6.2750,-0.3850,-0.8146,0.2975,-4.3293,-4.8709,1.7414,-0.0767,0.9012,-0.3515,849.3726,18.7800,40.5600,-23.1600,121.018,59.149,52.307,49.17439024,-121.67782870,0.00000000,
6.2810,-0.3850,-0.8146,0.2975,-4.3293,-4.8709,1.7414,1.0855,0.2216,-0.0522,849.3726,18.7800,40.5600,-23.1600,121.018,59.149,52.307,49.17439024,-121.67782870,0.00000000,
6.2840,-0.3850,-0.8146,0.2975,-4.3293,-4.8709,1.7414,1.0855,0.2216,-0.0522,849.4797,18.7800,40.5600,-23.1600,121.018,59.149,52.307,49.17439024,-121.67782870,0.00000000,
6.2880,-0.3850,-0.8146,0.2975,-4.3293,-4.8709,1.7414,1.0855,0.2216,-0.0522,849.4797,18.7800,40.5600,-23.1600,121.018,59.149,52.307,49.17439024,-121.67782870,0.00000000,
6.3020,-0.3850,-0.8146,0.2975,1.6291,-0.1680,0.4839,1.0855,0.2216,-0.0522,849.4797,18.7800,40.5600,-23.1600,121.018,59.149,52.307,49.17439024,-121.67782870,0.00000000,
6.3270,-0.7632,-0.8688,-0.0440,1.6291,-0.1680,0.4839,1.0855,0.2216,-0.0522,849.4797,18.7800,40.5600,-23.1600,60.453,48.655,93.302,49.17439024,-121.67782870,0.00000000,
6.3300,-0.7632,-0.8688,-0.0440,1.6291,-0.1680,0.4839,1.0855,0.2216,-0.0522,849.4797,18.9000,40.6200,-22.0800,59.506,48.655,93.302,49.17439024,-121.67782870,0.00000000,
6.3390,-0.7632,-0.8688,-0.0440,1.6291,-0.1680,0.4839,0.8607,-0.0053,-0.3143,849.4797,18.9000,40.6200,-22.0800,59.506,48.655,93.302,49.17439024,-121.67782870,0.00000000,
6.3620,-0.7632,-0.8688,-0.0440,-2.4166,-0.5948,-3.2276,0.8607,-0.0053,-0.3143,849.4797,18.9000,40.6200,-22.0800,59.506,48.655,93.302,49.17439024,-121.67782870,0.00000000,
6.3860,-0.5003,-0.1911,0.8638,-2.4166,-0.5948,-3.2276,0.8607,-0.0053,-0.3143,849.4797,18.9000,40.6200,-22.0800,-8.708,10.838,30.081,49.17439024,-121.67782870,0.00000000,
6.3890,-0.5003,-0.1911,0.8638,-2.4166,-0.5948,-3.2276,0.8607,-0.0053,-0.3143,849.4797,19.0200,40.6200,-21.0000,-9.706,10.838,30.081,49.17439024,-121.67782870,0.00000000,
6.3920,-0.5003,-0.1911,0.8638,-2.4166,-0.5948,-3.2276,0.0927,-1.3263,-0.2056,849.4797,19.0200,40.6200,-21.0000,-9.706,10.838,30.081,49.17439024,-121.67782870,0.00000000,
6.4220,-0.5003,-0.1911,0.8638,0.0548,6.0213,5.4206,0.0927,-1.3263,-0.2056,849.4797,19.0200,40.6200,-21.0000,-9.706,10.838,30.081,49.17439024,-121.67782870,0.00000000,
6.4460,-0.5678,-0.6905,0.4289,0.0548,6.0213,5.4206,0.0927,-1.3263,-0.2056,849.4797,19.0200,40.6200,-21.0000,28.440,44.137,52.929,49.17439024,-121.67782870,0.00000000,
6.4500,-0.5678,-0.6905,0.4289,0.0548,6.0213,5.4206,0.0927,-1.3263,-0.2056,849.4797,19.2000,40.5600,-20.1600,24.332,44.137,52.929,49.17439024,-121.67782870,0.00000000,
6.4530,-0.5678,-0.6905,0.4289,0.0548,6.0213,5.4206,0.1438,0.8852,-0.4272,849.4797,19.2000,40.5600,-20.1600,24.332,44.137,52.929,49.17439024,-121.67782870,0.00000000,
6.4630,-0.5678,-0.6905,0.4289,0.0548,6.0213,5.4206,0.1438,0.8852,-0.4272,849.4668,19.2000,40.5600,-20.1600,24.332,44.137,52.929,49.17439024,-121.67782870,0.00000000,
6.4660,-0.5678,-0.6905,0.4289,0.0548,6.0213,5.4206,0.1438,0.8852,-0.4272,849.4668,19.2000,40.5600,-20.1600,24.332,44.137,52.929,49.17439024,-121.67782870,0.00000000,
6.4820,-0.5678,-0.6905,0.4289,-0.5440,1.1366,1.2867,0.1438,0.8852,-0.4272,849.4668,19.2000,40.5600,-20.1600,24.332,44.137,52.929,49.17439024,-121.67782870,0.00000000,
6.5080,-0.7554,-1.0765,0.3786,-0.5440,1.1366,1.2867,0.1438,0.8852,-0.4272,849.4668,19.2000,40.5600,-20.1600,64.784,51.870,63.379,49.17439024,-121.67782870,0.00000000,
6.5110,-0.7554,-1.0765,0.3786,-0.5440,1.1366,1.2867,0.1438,0.8852,-0.4272,849.4668,19.3200,40.5600,-19.5000,62.420,51.870,63.379,49.17439024,-121.67782870,0.00000000,
6.5140,-0.7554,-1.0765,0.3786,-0.5440,1.1366,1.2867,0.2557,1.1025,-0.3377,849.4668,19.3200,40.5600,-19.5000,62.420,51.870,63.379,49.17439024,-121.67782870,0.00000000,
6.5450,-0.7554,-1.0765,0.3786,-2.3183,-2.6451,0.9106,0.2557,1.1025,-0.3377,849.4668,19.3200,40.5600,-19.5000,62.420,51.870,63.379,49.17439024,-121.67782870,0.00000000,
6.5900,-0.7070,-1.0716,0.1876,-2.3183,-2.6451,0.9106,0.2557,1.1025,-0.3377,849.4668,19.3200,40.5600,-19.5000,76.584,55.682,75.142,49.17439024,-121.67782870,0.00000000,
6.5920,-0.7070,-1.0716,0.1876,-2.3183,-2.6451,0.9106,0.2557,1.1025,-0.3377,849.4668,19.4400,40.5000,-19.0200,76.221,55.682,75.142,49.17439024,-121.67782870,0.00000000,
6.5930,-0.7070,-1.0716,0.1876,-2.3183,-2.6451,0.9106,0.2024,0.3206,-0.0650,849.4668,19.4400,40.5000,-19.0200,76.221,55.682,75.142,49.17439024,-121.67782870,0.00000000,
6.6000,-0.7070,-1.0716,0.1876,-1.7635,-2.6019,-0.8236,0.2024,0.3206,-0.0650,849.4668,19.4400,40.5000,-19.0200,76.221,55.682,75.142,49.17439024,-121.67782870,0.00000000,
6.6230,-0.7632,-1.2861,0.5101,-1.7635,-2.6019,-0.8236,0.2024,0.3206,-0.0650,849.4668,19.4400,40.5000,-19.0200,70.537,54.482,56.245,49.17439024,-121.67782870,0.00000000,
6.6240,-0.7632,-1.2861,0.5101,-1.7635,-2.6019,-0.8236,0.2024,0.3206,-0.0650,849.4668,19.5000,40.5600,-18.6000,67.102,54.482,56.245,49.17439024,-121.67782870,0.00000000,
6.6260,-0.7632,-1.2861,0.5101,-1.7635,-2.6019,-0.8236,0.1268,0.4016,0.1406,849.4668,19.5000,40.5600,-18.6000,67.102,54.482,56.245,49.17439024,-121.67782870,0.00000000,
6.6410,-0.7632,-1.2861,0.5101,-1.7635,-2.6019,-0.8236,0.1268,0.4016,0.1406,849.4446,19.5000,40.5600,-18.6000,67.102,54.482,56.245,49.17439024,-121.67782870,0.00000000,
6.6440,-0.7632,-1.2861,0.5101,-1.7635,-2.6019,-0.8236,0.1268,0.4016,0.1406,849.4446,19.5000,40.5600,-18.6000,67.102,54.482,56.245,49.17439024,-121.67782870,0.00000000,
6.6620,-0.7632,-1.2861,0.5101,-2.1174,-4.9031,2.1491,0.1268,0.4016,0.1406,849.4446,19.5000,40.5600,-18.6000,67.102,54.482,56.245,49.17439024,-121.67782870,0.00000000,
6.6990,-0.5707,-1.0520,0.5135,-2.1174,-4.9031,2.1491,0.1268,0.4016,0.1406,849.4446,19.5000,40.5600,-18.6000,20.057,53.881,48.022,49.17439024,-121.67782870,0.00000000,
6.7060,-0.5707,-1.0520,0.5135,-2.1174,-4.9031,2.1491,0.1268,0.4016,0.1406,849.4446,19.5600,40.6200,-18.1800,10.314,53.881,48.022,49.17439024,-121.67782870,0.00000000,
6.7100,-0.5707,-1.0520,0.5135,-2.1174,-4.9031,2.1491,0.4975,0.7276,0.0767,849.4446,19.5600,40.6200,-18.1800,10.314,53.881,48.022,49.17439024,-121.67782870,0.00000000,
6.7200,-0.5707,-1.0520,0.5135,-0.0533,-2.8128,1.9865,0.4975,0.7276,0.0767,849.4446,19.5600,40.6200,-18.1800,10.314,53.881,48.022,49.17439024,-121.67782870,0.00000000,
6.7430,-0.5365,-0.7081,0.2809,-0.0533,-2.8128,1.9865,0.4975,0.7276,0.0767,849.4446,19.5600,40.6200,-18.1800,45.864,49.461,62.365,49.17439024,-121.67782870,0.00000000,
6.7440,-0.5365,-0.7081,0.2809,-0.0533,-2.8128,1.9865,0.4975,0.7276,0.0767,849.4446,19.4400,40.7400,-17.7600,43.287,49.461,62.365,49.17439024,-121.67782870,0.00000000,
6.7460,-0.5365,-0.7081,0.2809,-0.0533,-2.8128,1.9865,0.2834,0.5902,0.1310,849.4446,19.4400,40.7400,-17.7600,43.287,49.461,62.365,49.17439024,-121.67782870,0.00000000,
6.7830,-0.5365,-0.7081,0.2809,0.5812,0.5113,0.1896,0.2834,0.5902,0.1310,849.4446,19.4400,40.7400,-17.7600,43.287,49.461,62.365,49.17439024,-121.67782870,0.00000000,
6.8080,-0.6557,-0.1354,0.3053,0.5812,0.5113,0.1896,0.2834,0.5902,0.1310,849.4446,19.4400,40.7400,-17.7600,12.564,10.603,65.032,49.17439024,-121.67782870,0.00000000,
6.8120,-0.6557,-0.1354,0.3053,0.5812,0.5113,0.1896,0.2834,0.5902,0.1310,849.4446,19.2000,40.8600,-17.3400,12.069,10.603,65.032,49.17439024,-121.67782870,0.00000000,
6.8180,-0.6557,-0.1354,0.3053,0.5812,0.5113,0.1896,-0.8682,0.9619,0.2344,849.4446,19.2000,40.8600,-17.3400,12.069,10.603,65.032,49.17439024,-121.67782870,0.00000000,
6.8210,-0.6557,-0.1354,0.3053,0.5812,0.5113,0.1896,-0.8682,0.9619,0.2344,849.4971,19.2000,40.8600,-17.3400,12.069,10.603,65.032,49.17439024,-121.67782870,0.00000000,
6.8240,-0.6557,-0.1354,0.3053,0.5812,0.5113,0.1896,-0.8682,0.9619,0.2344,849.4971,19.2000,40.8600,-17.3400,12.069,10.603,65.032,49.17439024,-121.67782870,0.00000000,
6.8420,-0.6557,-0.1354,0.3053,-0.3863,6.0702,0.7619,-0.8682,0.9619,0.2344,849.4971,19.2000,40.8600,-17.3400,12.069,10.603,65.032,49.17439024,-121.67782870,0.00000000,
6.8640,-1.1785,-1.9188,0.5516,-0.3863,6.0702,0.7619,-0.8682,0.9619,0.2344,849.4971,19.2000,40.8600,-17.3400,72.011,55.858,64.919,49.17439024,-121.67782870,0.00000000,
6.8670,-1.1785,-1.9188,0.5516,-0.3863,6.0702,0.7619,-0.8682,0.9619,0.2344,849.4971,18.9600,41.1000,-16.9800,68.462,55.858,64.919,49.17439024,-121.67782870,0.00000000,
6.8700,-1.1785,-1.9188,0.5516,-0.3863,6.0702,0.7619,-0.6860,0.1502,0.2993,849.4971,18.9600,41.1000,-16.9800,68.462,55.858,64.919,49.17439024,-121.67782870,0.00000000,
6.9020,-1.1785,-1.9188,0.5516,-5.6197,-11.4119,2.8850,-0.6860,0.1502,0.2993,849.4971,18.9600,41.1000,-16.9800,68.462,55.858,64.919,49.17439024,-121.67782870,0.00000000,
6.9260,-0.6430,-0.7515,0.2824,-5.6197,-11.4119,2.8850,-0.6860,0.1502,0.2993,849.4971,18.9600,41.1000,-16.9800,37.335,46.941,66.293,49.17439024,-121.67782870,0.00000000,
6.9290,-0.6430,-0.7515,0.2824,-5.6197,-11.4119,2.8850,-0.6860,0.1502,0.2993,849.4971,18.6600,41.4000,-16.5600,35.054,46.941,66.293,49.17439024,-121.67782870,0.00000000,
6.9320,-0.6430,-0.7515,0.2824,-5.6197,-11.4119,2.8850,0.6424,-0.4485,-0.1172,849.4971,18.6600,41.4000,-16.5600,35.054,46.941,66.293,49.17439024,-121.67782870,0.00000000,
6.9640,-0.6430,-0.7515,0.2824,-0.4828,-0.0079,-0.0935,0.6424,-0.4485,-0.1172,849.4971,18.6600,41.4000,-16.5600,35.054,46.941,66.293,49.17439024,-121.67782870,0.00000000,
6.9990,-0.4735,-0.3724,0.2775,-0.4828,-0.0079,-0.0935,0.6424,-0.4485,-0.1172,849.4971,18.6600,41.4000,-16.5600,13.307,34.159,59.628,49.17439024,-121.67782870,0.00000000,
7.0050,-0.4735,-0.3724,0.2775,-0.4828,-0.0079,-0.0935,0.6424,-0.4485,-0.1172,849.4971,18.4200,41.7000,-16.2000,12.530,34.159,59.628,49.17439024,-121.67782870,0.00000000,
7.0120,-0.4735,-0.3724,0.2775,-0.4828,-0.0079,-0.0935,0.4730,-0.3025,-0.1609,849.4971,18.4200,41.7000,-16.2000,12.530,34.159,59.628,49.17439024,-121.67782870,0.00000000,
7.0190,-0.4735,-0.3724,0.2775,-0.4828,-0.0079,-0.0935,0.4730,-0.3025,-0.1609,849.4641,18.4200,41.7000,-16.2000,12.530,34.159,59.628,49.17439024,-121.67782870,0.00000000,
7.0210,-0.4735,-0.3724,0.2775,-0.4828,-0.0079,-0.0935,0.4730,-0.3025,-0.1609,849.4641,18.4200,41.7000,-16.2000,12.530,34.159,59.628,49.17439024,-121.67782870,0.00000000,
7.0220,-0.4735,-0.3724,0.2775,1.0582,3.7795,-0.1984,0.4730,-0.3025,-0.1609,849.4641,18.4200,41.7000,-16.2000,12.530,34.159,59.628,49.17439024,-121.67782870,0.00000000,
7.0410,-0.5248,-1.1185,0.5775,1.0582,3.7795,-0.1984,0.4730,-0.3025,-0.1609,849.4641,18.4200,41.7000,-16.2000,-35.298,55.099,42.262,49.17439024,-121.67782870,0.00000000,
7.0450,-0.5248,-1.1185,0.5775,1.0582,3.7795,-0.1984,0.4730,-0.3025,-0.1609,849.4641,18.1200,42.0000,-15.9000,-31.780,55.099,42.262,49.17439024,-121.67782870,0.00000000,
7.0470,-0.5248,-1.1185,0.5775,1.0582,3.7795,-0.1984,0.1406,-0.0309,0.1598,849.4641,18.1200,42.0000,-15.9000,-31.780,55.099,42.262,49.17439024,-121.67782870,0.00000000,
7.0790,-0.5248,-1.1185,0.5775,0.7306,-3.6550,2.7797,0.1406,-0.0309,0.1598,849.4641,18.1200,42.0000,-15.9000,-31.780,55.099,42.262,49.17439024,-121.67782870,0.00000000,
7.1050,-0.4862,-0.9704,0.2579,0.7306,-3.6550,2.7797,0.1406,-0.0309,0.1598,849.4641,18.1200,42.0000,-15.9000,86.771,60.442,62.053,49.17439024,-121.67782870,0.00000000,
7.1080,-0.4862,-0.9704,0.2579,0.7306,-3.6550,2.7797,0.1406,-0.0309,0.1598,849.4641,17.8800,42.3000,-15.6600,82.237,60.442,62.053,49.17439024,-121.67782870,0.00000000,
7.1100,-0.4862,-0.9704,0.2579,0.7306,-3.6550,2.7797,0.5465,-0.1204,0.3153,849.4641,17.8800,42.3000,-15.6600,82.237,60.442,62.053,49.17439024,-121.67782870,0.00000000,
7.1420,-0.4862,-0.9704,0.2579,0.9809,-2.3687,-0.9591,0.5465,-0.1204,0.3153,849.4641,17.8800,42.3000,-15.6600,82.237,60.442,62.053,49.17439024,-121.67782870,0.00000000,
7.1690,-0.3542,-0.4975,0.6283,0.9809,-2.3687,-0.9591,0.5465,-0.1204,0.3153,849.4641,17.8800,42.3000,-15.6600,-19.641,34.594,29.415,49.17439024,-121.67782870,0.00000000,
7.1790,-0.3542,-0.4975,0.6283,0.9809,-2.3687,-0.9591,0.5465,-0.1204,0.3153,849.4641,17.4600,42.6000,-15.6000,-18.556,34.594,29.415,49.17439024,-121.67782870,0.00000000,
7.1810,-0.3542,-0.4975,0.6283,0.9809,-2.3687,-0.9591,0.9854,-0.1044,0.1044,849.4641,17.4600,42.6000,-15.6000,-18.556,34.594,29.415,49.17439024,-121.67782870,0.00000000,
7.1820,-0.3542,-0.4975,0.6283,0.9809,-2.3687,-0.9591,0.9854,-0.1044,0.1044,849.4373,17.4600,42.6000,-15.6000,-18.556,34.594,29.415,49.17439024,-121.67782870,0.00000000,
7.1840,-0.3542,-0.4975,0.6283,0.9809,-2.3687,-0.9591,0.9854,-0.1044,0.1044,849.4373,17.4600,42.6000,-15.6000,-18.556,34.594,29.415,49.17439024,-121.67782870,0.00000000,
7.1980,-0.3542,-0.4975,0.6283,2.3832,2.1158,2.5492,0.9854,-0.1044,0.1044,849.4373,17.4600,42.6000,-15.6000,-18.556,34.594,29.415,49.17439024,-121.67782870,0.00000000,
7.2220,-0.3352,-0.5283,0.1319,2.3832,2.1158,2.5492,0.9854,-0.1044,0.1044,849.4373,17.4600,42.6000,-15.6000,54.216,55.711,68.525,49.17439024,-121.67782870,0.00000000,
7.2230,-0.3352,-0.5283,0.1319,2.3832,2.1158,2.5492,0.9854,-0.1044,0.1044,849.4373,16.9800,42.9000,-15.6600,52.655,55.711,68.525,49.17439024,-121.67782870,0.00000000,
7.2250,-0.3352,-0.5283,0.1319,2.3832,2.1158,2.5492,0.4730,0.3973,0.1790,849.4373,16.9800,42.9000,-15.6600,52.655,55.711,68.525,49.17439024,-121.67782870,0.00000000,
7.2620,-0.3352,-0.5283,0.1319,2.8009,1.8280,-1.8804,0.4730,0.3973,0.1790,849.4373,16.9800,42.9000,-15.6600,52.655,55.711,68.525,49.17439024,-121.67782870,0.00000000,
7.2850,-0.5492,-1.0755,0.1939,2.8009,1.8280,-1.8804,0.4730,0.3973,0.1790,849.4373,16.9800,42.9000,-15.6600,79.039,61.562,70.552,49.17439024,-121.67782870,0.00000000,
7.2890,-0.5492,-1.0755,0.1939,2.8009,1.8280,-1.8804,0.4730,0.3973,0.1790,849.4373,16.5600,43.2600,-15.8400,76.674,61.562,70.552,49.17439024,-121.67782870,0.00000000,
7.2930,-0.5492,-1.0755,0.1939,2.8009,1.8280,-1.8804,0.3324,1.5968,0.4453,849.4373,16.5600,43.2600,-15.8400,76.674,61.562,70.552,49.17439024,-121.67782870,0.00000000,
7.3220,-0.5492,-1.0755,0.1939,1.0522,-3.7071,-0.9427,0.3324,1.5968,0.4453,849.4373,16.5600,43.2600,-15.8400,76.674,61.562,70.552,49.17439024,-121.67782870,0.00000000,
7.3600,-0.6244,-0.9035,0.3107,1.0522,-3.7071,-0.9427,0.3324,1.5968,0.4453,849.4373,16.5600,43.2600,-15.8400,36.748,52.333,63.547,49.17439024,-121.67782870,0.00000000,
7.3640,-0.6244,-0.9035,0.3107,1.0522,-3.7071,-0.9427,0.3324,1.5968,0.4453,849.4373,16.2000,43.5000,-16.0200,37.015,52.333,63.547,49.17439024,-121.67782870,0.00000000,
7.3660,-0.6244,-0.9035,0.3107,1.0522,-3.7071,-0.9427,1.2432,1.3944,0.0927,849.4373,16.2000,43.5000,-16.0200,37.015,52.333,63.547,49.17439024,-121.67782870,0.00000000,
7.3680,-0.6244,-0.9035,0.3107,1.0522,-3.7071,-0.9427,1.2432,1.3944,0.0927,849.4492,16.2000,43.5000,-16.0200,37.015,52.333,63.547,49.17439024,-121.67782870,0.00000000,
7.3690,-0.6244,-0.9035,0.3107,1.0522,-3.7071,-0.9427,1.2432,1.3944,0.0927,849.4492,16.2000,43.5000,-16.0200,37.015,52.333,63.547,49.17439024,-121.67782870,0.00000000,
7.3780,-0.6244,-0.9035,0.3107,0.4160,-2.1525,0.1223,1.2432,1.3944,0.0927,849.4492,16.2000,43.5000,-16.0200,37.015,52.333,63.547,49.17439024,-121.67782870,0.00000000,
7.4010,-0.5091,-0.6616,0.3004,0.4160,-2.1525,0.1223,1.2432,1.3944,0.0927,849.4492,16.2000,43.5000,-16.0200,23.982,48.220,59.456,49.17439024,-121.67782870,0.00000000,
7.4020,-0.5091,-0.6616,0.3004,0.4160,-2.1525,0.1223,1.2432,1.3944,0.0927,849.4492,15.9000,43.6800,-16.1400,24.492,48.220,59.456,49.17439024,-121.67782870,0.00000000,
7.4040,-0.5091,-0.6616,0.3004,0.4160,-2.1525,0.1223,1.6362,1.7779,-0.2876,849.4492,15.9000,43.6800,-16.1400,24.492,48.220,59.456,49.17439024,-121.67782870,0.00000000,
7.4390,-0.5091,-0.6616,0.3004,1.7977,0.0758,0.2850,1.6362,1.7779,-0.2876,849.4492,15.9000,43.6800,-16.1400,24.492,48.220,59.456,49.17439024,-121.67782870,0.00000000,
7.4630,-0.6596,-0.6919,0.0757,1.7977,0.0758,0.2850,1.6362,1.7779,-0.2876,849.4492,15.9000,43.6800,-16.1400,39.074,46.182,83.456,49.17439024,-121.67782870,0.00000000,
7.4660,-0.6596,-0.6919,0.0757,1.7977,0.0758,0.2850,1.6362,1.7779,-0.2876,849.4492,15.6600,43.8000,-16.2000,38.847,46.182,83.456,49.17439024,-121.67782870,0.00000000,
7.4680,-0.6596,-0.6919,0.0757,1.7977,0.0758,0.2850,1.4924,2.2999,-0.1225,849.4492,15.6600,43.8000,-16.2000,38.847,46.182,83.456,49.17439024,-121.67782870,0.00000000,
7.5000,-0.6596,-0.6919,0.0757,0.6827,-0.4392,-1.4655,1.4924,2.2999,-0.1225,849.4492,15.6600,43.8000,-16.2000,38.847,46.182,83.456,49.17439024,-121.67782870,0.00000000,
7.5280,-1.0017,-0.7770,-0.1730,0.6827,-0.4392,-1.4655,1.4924,2.2999,-0.1225,849.4492,15.6600,43.8000,-16.2000,34.503,37.392,99.801,49.17439024,-121.67782870,0.00000000,
7.5360,-1.0017,-0.7770,-0.1730,0.6827,-0.4392,-1.4655,1.4924,2.2999,-0.1225,849.4492,15.4800,43.7400,-16.1400,34.321,37.392,99.801,49.17439024,-121.67782870,0.00000000,
7.5400,-1.0017,-0.7770,-0.1730,0.6827,-0.4392,-1.4655,1.5862,2.2903,0.0682,849.4492,15.4800,43.7400,-16.1400,34.321,37.392,99.801,49.17439024,-121.67782870,0.00000000,
7.5420,-1.0017,-0.7770,-0.1730,0.6827,-0.4392,-1.4655,1.5862,2.2903,0.0682,849.4360,15.4800,43.7400,-16.1400,34.321,37.392,99.801,49.17439024,-121.67782870,0.00000000,
7.5430,-1.0017,-0.7770,-0.1730,0.6827,-0.4392,-1.4655,1.5862,2.2903,0.0682,849.4360,15.4800,43.7400,-16.1400,34.321,37.392,99.801,49.17439024,-121.67782870,0.00000000,
7.5580,-1.0017,-0.7770,-0.1730,-2.4197,-1.4540,-3.5699,1.5862,2.2903,0.0682,849.4360,15.4800,43.7400,-16.1400,34.321,37.392,99.801,49.17439024,-121.67782870,0.00000000,
7.5890,-1.0520,-0.6475,-0.2561,-2.4197,-1.4540,-3.5699,1.5862,2.2903,0.0682,849.4360,15.4800,43.7400,-16.1400,31.328,30.880,103.682,49.17439024,-121.67782870,0.00000000,
7.5980,-1.0520,-0.6475,-0.2561,-2.4197,-1.4540,-3.5699,1.5862,2.2903,0.0682,849.4360,15.3000,43.6200,-15.9600,31.069,30.880,103.682,49.17439024,-121.67782870,0.00000000,
7.6020,-1.0520,-0.6475,-0.2561,-2.4197,-1.4540,-3.5699,1.9675,1.8312,-0.2290,849.4360,15.3000,43.6200,-15.9600,31.069,30.880,103.682,49.17439024,-121.67782870,0.00000000,
7.6180,-1.0520,-0.6475,-0.2561,-2.8256,-0.3049,-4.4273,1.9675,1.8312,-0.2290,849.4360,15.3000,43.6200,-15.9600,31.069,30.880,103.682,49.17439024,-121.67782870,0.00000000,
7.6410,-1.1131,-0.5395,-0.2859,-2.8256,-0.3049,-4.4273,1.9675,1.8312,-0.2290,849.4360,15.3000,43.6200,-15.9600,28.916,25.148,104.406,49.17439024,-121.67782870,0.00000000,
7.6430,-1.1131,-0.5395,-0.2859,-2.8256,-0.3049,-4.4273,1.9675,1.8312,-0.2290,849.4360,15.1800,43.5600,-15.7200,28.605,25.148,104.406,49.17439024,-121.67782870,0.00000000,
7.6440,-1.1131,-0.5395,-0.2859,-2.8256,-0.3049,-4.4273,1.9643,1.0791,-0.2109,849.4360,15.1800,43.5600,-15.7200,28.605,25.148,104.406,49.17439024,-121.67782870,0.00000000,
7.6780,-1.1131,-0.5395,-0.2859,-3.2366,0.4932,-4.7790,1.9643,1.0791,-0.2109,849.4360,15.1800,43.5600,-15.7200,28.605,25.148,104.406,49.17439024,-121.67782870,0.00000000,
7.7170,-0.5629,-0.2722,0.3219,-3.2366,0.4932,-4.7790,1.9643,1.0791,-0.2109,849.4360,15.1800,43.5600,-15.7200,10.794,22.773,60.233,49.17439024,-121.67782870,0.00000000,
7.7230,-0.5629,-0.2722,0.3219,-3.2366,0.4932,-4.7790,1.9643,1.0791,-0.2109,849.4360,15.1800,43.4400,-15.4200,10.361,22.773,60.233,49.17439024,-121.67782870,0.00000000,
7.7240,-0.5629,-0.2722,0.3219,-3.2366,0.4932,-4.7790,1.4935,0.4932,-0.6147,849.4360,15.1800,43.4400,-15.4200,10.361,22.773,60.233,49.17439024,-121.67782870,0.00000000,
7.7260,-0.5629,-0.2722,0.3219,-3.2366,0.4932,-4.7790,1.4935,0.4932,-0.6147,849.4734,15.1800,43.4400,-15.4200,10.361,22.773,60.233,49.17439024,-121.67782870,0.00000000,
7.7280,-0.5629,-0.2722,0.3219,-3.2366,0.4932,-4.7790,1.4935,0.4932,-0.6147,849.4734,15.1800,43.4400,-15.4200,10.361,22.773,60.233,49.17439024,-121.67782870,0.00000000,
7.7390,-0.5629,-0.2722,0.3219,1.9904,3.2743,1.0305,1.4935,0.4932,-0.6147,849.4734,15.1800,43.4400,-15.4200,10.361,22.773,60.233,49.17439024,-121.67782870,0.00000000,
7.7600,-1.0026,-0.7349,0.0498,1.9904,3.2743,1.0305,1.4935,0.4932,-0.6147,849.4734,15.1800,43.4400,-15.4200,29.737,36.208,87.158,49.17439024,-121.67782870,0.00000000,
7.7620,-1.0026,-0.7349,0.0498,1.9904,3.2743,1.0305,1.4935,0.4932,-0.6147,849.4734,15.2400,43.2600,-15.1200,29.389,36.208,87.158,49.17439024,-121.67782870,0.00000000,
7.7630,-1.0026,-0.7349,0.0498,1.9904,3.2743,1.0305,0.5198,0.8938,-0.2876,849.4734,15.2400,43.2600,-15.1200,29.389,36.208,87.158,49.17439024,-121.67782870,0.00000000,
7.8000,-1.0026,-0.7349,0.0498,-2.2140,-1.2782,-1.2826,0.5198,0.8938,-0.2876,849.4734,15.2400,43.2600,-15.1200,29.389,36.208,87.158,49.17439024,-121.67782870,0.00000000,
7.8290,-0.8316,-0.6827,0.1138,-2.2140,-1.2782,-1.2826,0.5198,0.8938,-0.2876,849.4734,15.2400,43.2600,-15.1200,29.592,39.121,82.209,49.17439024,-121.67782870,0.00000000,
7.8350,-0.8316,-0.6827,0.1138,-2.2140,-1.2782,-1.2826,0.5198,0.8938,-0.2876,849.4734,15.4200,43.0800,-14.8200,29.219,39.121,82.209,49.17439024,-121.67782870,0.00000000,
7.8400,-0.8316,-0.6827,0.1138,-2.2140,-1.2782,-1.2826,0.5220,0.6019,-0.1427,849.4734,15.4200,43.0800,-14.8200,29.219,39.121,82.209,49.17439024,-121.67782870,0.00000000,
7.8590,-0.8316,-0.6827,0.1138,-0.6965,-0.5997,-0.7626,0.5220,0.6019,-0.1427,849.4734,15.4200,43.0800,-14.8200,29.219,39.121,82.209,49.17439024,-121.67782870,0.00000000,
7.8800,-0.7315,-0.6631,0.2227,-0.6965,-0.5997,-0.7626,0.5220,0.6019,-0.1427,849.4734,15.4200,43.0800,-14.8200,25.780,40.933,73.063,49.17439024,-121.67782870,0.00000000,
7.8810,-0.7315,-0.6631,0.2227,-0.6965,-0.5997,-0.7626,0.5220,0.6019,-0.1427,849.4734,15.5400,42.8400,-14.5200,25.249,40.933,73.063,49.17439024,-121.67782870,0.00000000,
7.8830,-0.7315,-0.6631,0.2227,-0.6965,-0.5997,-0.7626,0.6839,0.1491,-0.6157,849.4734,15.5400,42.8400,-14.5200,25.249,40.933,73.063,49.17439024,-121.67782870,0.00000000,
7.8990,-0.7315,-0.6631,0.2227,-0.6965,-0.5997,-0.7626,0.6839,0.1491,-0.6157,849.4382,15.5400,42.8400,-14.5200,25.249,40.933,73.063,49.17439024,-121.67782870,0.00000000,
7.9010,-0.7315,-0.6631,0.2227,-0.6965,-0.5997,-0.7626,0.6839,0.1491,-0.6157,849.4382,15.5400,42.8400,-14.5200,25.249,40.933,73.063,49.17439024,-121.67782870,0.00000000,
7.9170,-0.7315,-0.6631,0.2227,0.0101,-0.1137,0.2141,0.6839,0.1491,-0.6157,849.4382,15.5400,42.8400,-14.5200,25.249,40.933,73.063,49.17439024,-121.67782870,0.00000000,
7.9470,-0.6513,-0.6230,0.1426,0.0101,-0.1137,0.2141,0.6839,0.1491,-0.6157,849.4382,15.5400,42.8400,-14.5200,29.992,43.059,77.649,49.17439024,-121.67782870,0.00000000,
7.9540,-0.6513,-0.6230,0.1426,0.0101,-0.1137,0.2141,0.6839,0.1491,-0.6157,849.4382,15.6000,42.6000,-14.2200,29.513,43.059,77.649,49.17439024,-121.67782870,0.00000000,
7.9600,-0.6513,-0.6230,0.1426,0.0101,-0.1137,0.2141,0.2940,0.2216,-0.7350,849.4382,15.6000,42.6000,-14.2200,29.513,43.059,77.649,49.17439024,-121.67782870,0.00000000,
7.9830,-0.6513,-0.6230,0.1426,0.4955,0.6247,-0.4887,0.2940,0.2216,-0.7350,849.4382,15.6000,42.6000,-14.2200,29.513,43.059,77.649,49.17439024,-121.67782870,0.00000000,
8.0020,-0.6161,-0.7266,0.1553,0.4955,0.6247,-0.4887,0.2940,0.2216,-0.7350,849.4382,15.6000,42.6000,-14.2200,35.396,48.831,75.852,49.17439024,-121.67782870,0.00000000,
8.0040,-0.6161,-0.7266,0.1553,0.4955,0.6247,-0.4887,0.2940,0.2216,-0.7350,849.4382,15.6600,42.4200,-13.9200,34.764,48.831,75.852,49.17439024,-121.67782870,0.00000000,
8.0060,-0.6161,-0.7266,0.1553,0.4955,0.6247,-0.4887,0.0170,0.2716,-0.8075,849.4382,15.6600,42.4200,-13.9200,34.764,48.831,75.852,49.17439024,-121.67782870,0.00000000,
8.0400,-0.6161,-0.7266,0.1553,0.5089,-0.0292,-0.2137,0.0170,0.2716,-0.8075,849.4382,15.6600,42.4200,-13.9200,34.764,48.831,75.852,49.17439024,-121.67782870,0.00000000,
8.0650,-0.6010,-0.7511,0.1675,0.5089,-0.0292,-0.2137,0.0170,0.2716,-0.8075,849.4382,15.6600,42.4200,-13.9200,36.087,50.283,74.424,49.17439024,-121.67782870,0.00000000,
8.0680,-0.6010,-0.7511,0.1675,0.5089,-0.0292,-0.2137,0.0170,0.2716,-0.8075,849.4382,15.4800,42.4800,-13.6800,35.072,50.283,74.424,49.17439024,-121.67782870,0.00000000,
8.0710,-0.6010,-0.7511,0.1675,0.5089,-0.0292,-0.2137,0.2322,0.5571,-0.7627,849.4382,15.4800,42.4800,-13.6800,35.072,50.283,74.424,49.17439024,-121.67782870,0.00000000,
8.0800,-0.6010,-0.7511,0.1675,0.5089,-0.0292,-0.2137,0.2322,0.5571,-0.7627,849.4658,15.4800,42.4800,-13.6800,35.072,50.283,74.424,49.17439024,-121.67782870,0.00000000,
8.0830,-0.6010,-0.7511,0.1675,0.5089,-0.0292,-0.2137,0.2322,0.5571,-0.7627,849.4658,15.4800,42.4800,-13.6800,35.072,50.283,74.424,49.17439024,-121.67782870,0.00000000,
8.0980,-0.6010,-0.7511,0.1675,0.4200,-0.0588,-0.1030,0.2322,0.5571,-0.7627,849.4658,15.4800,42.4800,-13.6800,35.072,50.283,74.424,49.17439024,-121.67782870,0.00000000,
8.1250,-0.7036,-0.7330,0.2535,0.4200,-0.0588,-0.1030,0.2322,0.5571,-0.7627,849.4658,15.4800,42.4800,-13.6800,24.278,44.423,70.184,49.17439024,-121.67782870,0.00000000,
8.1310,-0.7036,-0.7330,0.2535,0.4200,-0.0588,-0.1030,0.2322,0.5571,-0.7627,849.4658,15.0600,42.6000,-13.3200,23.176,44.423,70.184,49.17439024,-121.67782870,0.00000000,
8.1350,-0.7036,-0.7330,0.2535,0.4200,-0.0588,-0.1030,0.8746,0.6626,-0.6051,849.4658,15.0600,42.6000,-13.3200,23.176,44.423,70.184,49.17439024,-121.67782870,0.00000000,
8.1630,-0.7036,-0.7330,0.2535,-0.6881,0.1158,0.3951,0.8746,0.6626,-0.6051,849.4658,15.0600,42.6000,-13.3200,23.176,44.423,70.184,49.17439024,-121.67782870,0.00000000,
8.1890,-0.9186,-0.7623,0.3312,-0.6881,0.1158,0.3951,0.8746,0.6626,-0.6051,849.4658,15.0600,42.6000,-13.3200,18.579,37.978,70.172,49.17439024,-121.67782870,0.00000000,
8.1960,-0.9186,-0.7623,0.3312,-0.6881,0.1158,0.3951,0.8746,0.6626,-0.6051,849.4658,14.5800,42.9000,-13.0200,17.864,37.978,70.172,49.17439024,-121.67782870,0.00000000,
8.2020,-0.9186,-0.7623,0.3312,-0.6881,0.1158,0.3951,1.3710,0.5252,-0.5539,849.4658,14.5800,42.9000,-13.0200,17.864,37.978,70.172,49.17439024,-121.67782870,0.00000000,
8.2200,-0.9186,-0.7623,0.3312,-2.8251,-0.2269,0.8915,1.3710,0.5252,-0.5539,849.4658,14.5800,42.9000,-13.0200,17.864,37.978,70.172,49.17439024,-121.67782870,0.00000000,
8.2510,-0.8565,-0.5673,0.0610,-2.8251,-0.2269,0.8915,1.3710,0.5252,-0.5539,849.4658,14.5800,42.9000,-13.0200,23.668,33.452,85.925,49.17439024,-121.67782870,0.00000000,
8.2610,-0.8565,-0.5673,0.0610,-2.8251,-0.2269,0.8915,1.3710,0.5252,-0.5539,849.4658,13.9800,43.2600,-12.7200,22.735,33.452,85.925,49.17439024,-121.67782870,0.00000000,
8.2700,-0.8565,-0.5673,0.0610,-2.8251,-0.2269,0.8915,0.9044,0.3696,-0.5188,849.4658,13.9800,43.2600,-12.7200,22.735,33.452,85.925,49.17439024,-121.67782870,0.00000000,
8.2780,-0.8565,-0.5673,0.0610,-2.8251,-0.2269,0.8915,0.9044,0.3696,-0.5188,849.4502,13.9800,43.2600,-12.7200,22.735,33.452,85.925,49.17439024,-121.67782870,0.00000000,
8.2820,-0.8565,-0.5673,0.0610,-2.8251,-0.2269,0.8915,0.9044,0.3696,-0.5188,849.4502,13.9800,43.2600,-12.7200,22.735,33.452,85.925,49.17439024,-121.67782870,0.00000000,
8.2870,-0.8565,-0.5673,0.0610,-2.1012,1.6246,-1.6273,0.9044,0.3696,-0.5188,849.4502,13.9800,43.2600,-12.7200,22.735,33.452,85.925,49.17439024,-121.67782870,0.00000000,
8.3020,-0.8727,-0.5190,-0.0528,-2.1012,1.6246,-1.6273,0.9044,0.3696,-0.5188,849.4502,13.9800,43.2600,-12.7200,23.962,30.694,93.464,49.17439024,-121.67782870,0.00000000,
8.3040,-0.8727,-0.5190,-0.0528,-2.1012,1.6246,-1.6273,0.9044,0.3696,-0.5188,849.4502,13.2000,43.7400,-12.5400,23.062,30.694,93.464,49.17439024,-121.67782870,0.00000000,
8.3050,-0.8727,-0.5190,-0.0528,-2.1012,1.6246,-1.6273,-0.2812,-0.2727,-0.0959,849.4502,13.2000,43.7400,-12.5400,23.062,30.694,93.464,49.17439024,-121.67782870,0.00000000,
8.3360,-0.8727,-0.5190,-0.0528,-2.3634,2.2439,-2.5534,-0.2812,-0.2727,-0.0959,849.4502,13.2000,43.7400,-12.5400,23.062,30.694,93.464,49.17439024,-121.67782870,0.00000000,
8.3650,-0.6137,-0.6900,0.0767,-2.3634,2.2439,-2.5534,-0.2812,-0.2727,-0.0959,849.4502,13.2000,43.7400,-12.5400,30.587,48.129,82.881,49.17439024,-121.67782870,0.00000000,
8.3720,-0.6137,-0.6900,0.0767,-2.3634,2.2439,-2.5534,-0.2812,-0.2727,-0.0959,849.4502,12.1800,44.2800,-12.5400,29.408,48.129,82.881,49.17439024,-121.67782870,0.00000000,
8.3790,-0.6137,-0.6900,0.0767,-2.3634,2.2439,-2.5534,-0.6381,-0.6072,-0.2482,849.4502,12.1800,44.2800,-12.5400,29.408,48.129,82.881,49.17439024,-121.67782870,0.00000000,
8.3960,-0.6137,-0.6900,0.0767,0.0749,0.6601,-1.2506,-0.6381,-0.6072,-0.2482,849.4502,12.1800,44.2800,-12.5400,29.408,48.129,82.881,49.17439024,-121.67782870,0.00000000,
8.4210,-0.5389,-0.6949,0.0825,0.0749,0.6601,-1.2506,-0.6381,-0.6072,-0.2482,849.4502,12.1800,44.2800,-12.5400,32.808,51.881,81.295,49.17439024,-121.67782870,0.00000000,
8.4220,-0.5389,-0.6949,0.0825,0.0749,0.6601,-1.2506,-0.6381,-0.6072,-0.2482,849.4502,11.1600,44.8800,-12.5400,31.411,51.881,81.295,49.17439024,-121.67782870,0.00000000,
8.4240,-0.5389,-0.6949,0.0825,0.0749,0.6601,-1.2506,-0.2866,-0.4666,0.1491,849.4502,11.1600,44.8800,-12.5400,31.411,51.881,81.295,49.17439024,-121.67782870,0.00000000,
8.4370,-0.5389,-0.6949,0.0825,0.0749,0.6601,-1.2506,-0.2866,-0.4666,0.1491,849.4783,11.1600,44.8800,-12.5400,31.411,51.881,81.295,49.17439024,-121.67782870,0.00000000,
8.4390,-0.5389,-0.6949,0.0825,0.0749,0.6601,-1.2506,-0.2866,-0.4666,0.1491,849.4783,11.1600,44.8800,-12.5400,31.411,51.881,81.295,49.17439024,-121.67782870,0.00000000,
8.4560,-0.5389,-0.6949,0.0825,0.7882,0.6426,-1.1383,-0.2866,-0.4666,0.1491,849.4783,11.1600,44.8800,-12.5400,31.411,51.881,81.295,49.17439024,-121.67782870,0.00000000,
8.4870,-0.5409,-0.8180,0.1148,0.7882,0.6426,-1.1383,-0.2866,-0.4666,0.1491,849.4783,11.1600,44.8800,-12.5400,35.534,55.943,78.021,49.17439024,-121.67782870,0.00000000,
8.4900,-0.5409,-0.8180,0.1148,0.7882,0.6426,-1.1383,-0.2866,-0.4666,0.1491,849.4783,10.0800,45.6600,-12.7200,34.229,55.943,78.021,49.17439024,-121.67782870,0.00000000,
8.4910,-0.5409,-0.8180,0.1148,0.7882,0.6426,-1.1383,-0.0533,-0.2354,0.3963,849.4783,10.0800,45.6600,-12.7200,34.229,55.943,78.021,49.17439024,-121.67782870,0.00000000,
8.5170,-0.5409,-0.8180,0.1148,0.8119,-0.5859,-0.7710,-0.0533,-0.2354,0.3963,849.4783,10.0800,45.6600,-12.7200,34.229,55.943,78.021,49.17439024,-121.67782870,0.00000000,
8.5490,-0.4940,-1.1136,0.1172,0.8119,-0.5859,-0.7710,-0.0533,-0.2354,0.3963,849.4783,10.0800,45.6600,-12.7200,53.837,65.491,76.653,49.17439024,-121.67782870,0.00000000,
8.5540,-0.4940,-1.1136,0.1172,0.8119,-0.5859,-0.7710,-0.0533,-0.2354,0.3963,849.4783,9.0000,46.4400,-12.9600,50.850,65.491,76.653,49.17439024,-121.67782870,0.00000000,
8.5610,-0.4940,-1.1136,0.1172,0.8119,-0.5859,-0.7710,-0.3068,0.3036,0.4240,849.4783,9.0000,46.4400,-12.9600,50.850,65.491,76.653,49.17439024,-121.67782870,0.00000000,
8.5800,-0.4940,-1.1136,0.1172,1.2688,-3.4054,-0.4231,-0.3068,0.3036,0.4240,849.4783,9.0000,46.4400,-12.9600,50.850,65.491,76.653,49.17439024,-121.67782870,0.00000000,
8.6050,-0.4578,-1.1786,0.1558,1.2688,-3.4054,-0.4231,-0.3068,0.3036,0.4240,849.4783,9.0000,46.4400,-12.9600,57.870,67.690,71.206,49.17439024,-121.67782870,0.00000000,
8.6090,-0.4578,-1.1786,0.1558,1.2688,-3.4054,-0.4231,-0.3068,0.3036,0.4240,849.4783,7.9800,47.1600,-13.2600,55.108,67.690,71.206,49.17439024,-121.67782870,0.00000000,
8.6160,-0.4578,-1.1786,0.1558,1.2688,-3.4054,-0.4231,0.1033,0.0895,0.2919,849.4783,7.9800,47.1600,-13.2600,55.108,67.690,71.206,49.17439024,-121.67782870,0.00000000,
8.6200,-0.4578,-1.1786,0.1558,1.2688,-3.4054,-0.4231,0.1033,0.0895,0.2919,849.4321,7.9800,47.1600,-13.2600,55.108,67.690,71.206,49.17439024,-121.67782870,0.00000000,
8.6210,-0.4578,-1.1786,0.1558,1.2688,-3.4054,-0.4231,0.1033,0.0895,0.2919,849.4321,7.9800,47.1600,-13.2600,55.108,67.690,71.206,49.17439024,-121.67782870,0.00000000,
8.6390,-0.4578,-1.1786,0.1558,1.3943,-3.8542,-0.0074,0.1033,0.0895,0.2919,849.4321,7.9800,47.1600,-13.2600,55.108,67.690,71.206,49.17439024,-121.67782870,0.00000000,
8.6590,-0.3386,-0.9719,0.1455,1.3943,-3.8542,-0.0074,0.1033,0.0895,0.2919,849.4321,7.9800,47.1600,-13.2600,61.172,69.233,66.740,49.17439024,-121.67782870,0.00000000,
8.6600,-0.3386,-0.9719,0.1455,1.3943,-3.8542,-0.0074,0.1033,0.0895,0.2919,849.4321,6.9000,47.8800,-13.5600,58.166,69.233,66.740,49.17439024,-121.67782870,0.00000000,
8.6620,-0.3386,-0.9719,0.1455,1.3943,-3.8542,-0.0074,-0.2653,-0.0618,-0.3494,849.4321,6.9000,47.8800,-13.5600,58.166,69.233,66.740,49.17439024,-121.67782870,0.00000000,
8.7000,-0.3386,-0.9719,0.1455,2.2322,-1.5518,0.0872,-0.2653,-0.0618,-0.3494,849.4321,6.9000,47.8800,-13.5600,58.166,69.233,66.740,49.17439024,-121.67782870,0.00000000,
8.7260,-0.5385,-0.8024,0.0297,2.2322,-1.5518,0.0872,-0.2653,-0.0618,-0.3494,849.4321,6.9000,47.8800,-13.5600,32.862,56.095,86.838,49.17439024,-121.67782870,0.00000000,
8.7300,-0.5385,-0.8024,0.0297,2.2322,-1.5518,0.0872,-0.2653,-0.0618,-0.3494,849.4321,5.8800,48.6000,-13.8600,32.030,56.095,86.838,49.17439024,-121.67782870,0.00000000,
8.7380,-0.5385,-0.8024,0.0297,2.2322,-1.5518,0.0872,-0.1747,0.0724,-0.5220,849.4321,5.8800,48.6000,-13.8600,32.030,56.095,86.838,49.17439024,-121.67782870,0.00000000,
8.7580,-0.5385,-0.8024,0.0297,-0.1134,0.3971,-0.8381,-0.1747,0.0724,-0.5220,849.4321,5.8800,48.6000,-13.8600,32.030,56.095,86.838,49.17439024,-121.67782870,0.00000000,
8.7780,-0.6630,-0.6651,-0.0372,-0.1134,0.3971,-0.8381,-0.1747,0.0724,-0.5220,849.4321,5.8800,48.6000,-13.8600,24.748,45.042,93.211,49.17439024,-121.67782870,0.00000000,
8.7790,-0.6630,-0.6651,-0.0372,-0.1134,0.3971,-0.8381,-0.1747,0.0724,-0.5220,849.4321,4.8600,49.3200,-14.2200,24.346,45.042,93.211,49.17439024,-121.67782870,0.00000000,
8.7810,-0.6630,-0.6651,-0.0372,-0.1134,0.3971,-0.8381,0.0565,0.8501,-1.1654,849.4321,4.8600,49.3200,-14.2200,24.346,45.042,93.211,49.17439024,-121.67782870,0.00000000,
8.7940,-0.6630,-0.6651,-0.0372,-0.1134,0.3971,-0.8381,0.0565,0.8501,-1.1654,849.4272,4.8600,49.3200,-14.2200,24.346,45.042,93.211,49.17439024,-121.67782870,0.00000000,
8.7960,-0.6630,-0.6651,-0.0372,-0.1134,0.3971,-0.8381,0.0565,0.8501,-1.1654,849.4272,4.8600,49.3200,-14.2200,24.346,45.042,93.211,49.17439024,-121.67782870,0.00000000,
8.8170,-0.6630,-0.6651,-0.0372,-1.5715,1.9260,-1.1434,0.0565,0.8501,-1.1654,849.4272,4.8600,49.3200,-14.2200,24.346,45.042,93.211,49.17439024,-121.67782870,0.00000000,
8.8440,-0.6411,-0.8072,0.0317,-1.5715,1.9260,-1.1434,0.0565,0.8501,-1.1654,849.4272,4.8600,49.3200,-14.2200,27.923,51.512,87.169,49.17439024,-121.67782870,0.00000000,
8.8490,-0.6411,-0.8072,0.0317,-1.5715,1.9260,-1.1434,0.0565,0.8501,-1.1654,849.4272,3.9000,49.9800,-14.5200,27.495,51.512,87.169,49.17439024,-121.67782870,0.00000000,
8.8540,-0.6411,-0.8072,0.0317,-1.5715,1.9260,-1.1434,0.4346,1.2677,-0.5795,849.4272,3.9000,49.9800,-14.5200,27.495,51.512,87.169,49.17439024,-121.67782870,0.00000000,
8.8760,-0.6411,-0.8072,0.0317,-1.4287,0.5368,-0.8056,0.4346,1.2677,-0.5795,849.4272,3.9000,49.9800,-14.5200,27.495,51.512,87.169,49.17439024,-121.67782870,0.00000000,
8.9030,-0.7373,-1.0413,0.2374,-1.4287,0.5368,-0.8056,0.4346,1.2677,-0.5795,849.4272,3.9000,49.9800,-14.5200,28.472,53.355,72.152,49.17439024,-121.67782870,0.00000000,
8.9050,-0.7373,-1.0413,0.2374,-1.4287,0.5368,-0.8056,0.4346,1.2677,-0.5795,849.4272,2.8800,50.6400,-14.7600,28.357,53.355,72.152,49.17439024,-121.67782870,0.00000000,
8.9060,-0.7373,-1.0413,0.2374,-1.4287,0.5368,-0.8056,2.0219,1.8450,0.1449,849.4272,2.8800,50.6400,-14.7600,28.357,53.355,72.152,49.17439024,-121.67782870,0.00000000,
8.9360,-0.7373,-1.0413,0.2374,-1.9526,-2.1815,0.3283,2.0219,1.8450,0.1449,849.4272,2.8800,50.6400,-14.7600,28.357,53.355,72.152,49.17439024,-121.67782870,0.00000000,
8.9600,-1.1287,-0.4506,0.3385,-1.9526,-2.1815,0.3283,2.0219,1.8450,0.1449,849.4272,2.8800,50.6400,-14.7600,16.547,20.925,73.304,49.17439024,-121.67782870,0.00000000,
8.9620,-1.1287,-0.4506,0.3385,-1.9526,-2.1815,0.3283,2.0219,1.8450,0.1449,849.4272,1.9200,51.2400,-15.0600,16.901,20.925,73.304,49.17439024,-121.67782870,0.00000000,
8.9650,-1.1287,-0.4506,0.3385,-1.9526,-2.1815,0.3283,2.6482,1.0195,0.5550,849.4272,1.9200,51.2400,-15.0600,16.901,20.925,73.304,49.17439024,-121.67782870,0.00000000,
8.9750,-1.1287,-0.4506,0.3385,-1.9526,-2.1815,0.3283,2.6482,1.0195,0.5550,849.4612,1.9200,51.2400,-15.0600,16.901,20.925,73.304,49.17439024,-121.67782870,0.00000000,
8.9780,-1.1287,-0.4506,0.3385,-1.9526,-2.1815,0.3283,2.6482,1.0195,0.5550,849.4612,1.9200,51.2400,-15.0600,16.901,20.925,73.304,49.17439024,-121.67782870,0.00000000,
8.9960,-1.1287,-0.4506,0.3385,-5.4980,3.1866,0.5921,2.6482,1.0195,0.5550,849.4612,1.9200,51.2400,-15.0600,16.901,20.925,73.304,49.17439024,-121.67782870,0.00000000,
9.0210,-0.9450,0.2960,0.4856,-5.4980,3.1866,0.5921,2.6482,1.0195,0.5550,849.4612,1.9200,51.2400,-15.0600,13.619,-15.570,62.802,49.17439024,-121.67782870,0.00000000,
9.0230,-0.9450,0.2960,0.4856,-5.4980,3.1866,0.5921,2.6482,1.0195,0.5550,849.4612,1.1400,51.5400,-15.5400,14.393,-15.570,62.802,49.17439024,-121.67782870,0.00000000,
9.0250,-0.9450,0.2960,0.4856,-5.4980,3.1866,0.5921,0.1087,0.0138,0.2493,849.4612,1.1400,51.5400,-15.5400,14.393,-15.570,62.802,49.17439024,-121.67782870,0.00000000,
9.0570,-0.9450,0.2960,0.4856,-3.4450,10.4283,2.3737,0.1087,0.0138,0.2493,849.4612,1.1400,51.5400,-15.5400,14.393,-15.570,62.802,49.17439024,-121.67782870,0.00000000,
9.0830,-0.7422,-0.3054,0.2208,-3.4450,10.4283,2.3737,0.1087,0.0138,0.2493,849.4612,1.1400,51.5400,-15.5400,17.604,21.527,73.433,49.17439024,-121.67782870,0.00000000,
9.0850,-0.7422,-0.3054,0.2208,-3.4450,10.4283,2.3737,0.1087,0.0138,0.2493,849.4612,0.6000,51.7800,-16.1400,18.297,21.527,73.433,49.17439024,-121.67782870,0.00000000,
9.0870,-0.7422,-0.3054,0.2208,-3.4450,10.4283,2.3737,-1.2634,-0.8320,-0.5486,849.4612,0.6000,51.7800,-16.1400,18.297,21.527,73.433,49.17439024,-121.67782870,0.00000000,
9.1150,-0.7422,-0.3054,0.2208,-1.7613,4.8390,0.0566,-1.2634,-0.8320,-0.5486,849.4612,0.6000,51.7800,-16.1400,18.297,21.527,73.433,49.17439024,-121.67782870,0.00000000,
9.1410,-0.5111,-0.9235,0.3786,-1.7613,4.8390,0.0566,-1.2634,-0.8320,-0.5486,849.4612,0.6000,51.7800,-16.1400,30.915,55.444,53.469,49.17439024,-121.67782870,0.00000000,
9.1420,-0.5111,-0.9235,0.3786,-1.7613,4.8390,0.0566,-1.2634,-0.8320,-0.5486,849.4612,0.1200,51.9000,-16.6800,32.186,55.444,53.469,49.17439024,-121.67782870,0.00000000,
9.1430,-0.5111,-0.9235,0.3786,-1.7613,4.8390,0.0566,-1.3348,-0.7414,-0.7830,849.4612,0.1200,51.9000,-16.6800,32.186,55.444,53.469,49.17439024,-121.67782870,0.00000000,
9.1530,-0.5111,-0.9235,0.3786,-1.7613,4.8390,0.0566,-1.3348,-0.7414,-0.7830,849.4551,0.1200,51.9000,-16.6800,32.186,55.444,53.469,49.17439024,-121.67782870,0.00000000,
9.1550,-0.5111,-0.9235,0.3786,-1.7613,4.8390,0.0566,-1.3348,-0.7414,-0.7830,849.4551,0.1200,51.9000,-16.6800,32.186,55.444,53.469,49.17439024,-121.67782870,0.00000000,
9.1820,-0.5111,-0.9235,0.3786,-0.1822,-0.7211,1.8414,-1.3348,-0.7414,-0.7830,849.4551,0.1200,51.9000,-16.6800,32.186,55.444,53.469,49.17439024,-121.67782870,0.00000000,
