
time,gFx,gFy,gFz,ax,ay,az,wx,wy,wz,p,Bx,By,Bz,Azimuth,Pitch,Roll,Latitude,Longitude,Speed (m/s),
0.0230,0.3064,0.3112,1.0060,-0.4009,0.2282,1.1050,-0.4250,-0.3952,0.1140,850.1699,18.9600,-34.9200,-28.5600,-135.897,-16.484,-16.937,49.17439224,-121.67812563,0.00000000,
0.0440,0.3928,0.2701,0.7260,-0.4009,0.2282,1.1050,-0.4250,-0.3952,0.1140,850.1699,18.9600,-34.9200,-28.5600,-132.957,-18.121,-28.418,49.17439224,-121.67812563,0.00000000,
0.0460,0.3928,0.2701,0.7260,-0.4009,0.2282,1.1050,-0.4250,-0.3952,0.1140,850.1699,18.5400,-34.6200,-28.7400,-132.821,-18.121,-28.418,49.17439224,-121.67812563,0.00000000,
0.0470,0.3928,0.2701,0.7260,-0.4009,0.2282,1.1050,-0.3643,0.0543,0.1300,850.1699,18.5400,-34.6200,-28.7400,-132.821,-18.121,-28.418,49.17439224,-121.67812563,0.00000000,
0.0840,0.3928,0.2701,0.7260,0.4460,-0.1072,-1.6598,-0.3643,0.0543,0.1300,850.1699,18.5400,-34.6200,-28.7400,-132.821,-18.121,-28.418,49.17439224,-121.67812563,0.00000000,
0.1080,0.3064,0.2745,0.8550,0.4460,-0.1072,-1.6598,-0.3643,0.0543,0.1300,850.1699,18.5400,-34.6200,-28.7400,-134.971,-16.819,-19.713,49.17439009,-121.67812651,0.27000001,
0.1100,0.3064,0.2745,0.8550,0.4460,-0.1072,-1.6598,-0.3643,0.0543,0.1300,850.1699,18.1800,-34.2600,-28.9200,-134.809,-16.819,-19.713,49.17439009,-121.67812651,0.27000001,
0.1120,0.3064,0.2745,0.8550,0.4460,-0.1072,-1.6598,-0.1342,0.6221,0.2269,850.1699,18.1800,-34.2600,-28.9200,-134.809,-16.819,-19.713,49.17439009,-121.67812651,0.27000001,
0.1240,0.3064,0.2745,0.8550,0.4460,-0.1072,-1.6598,-0.1342,0.6221,0.2269,849.9038,18.1800,-34.2600,-28.9200,-134.809,-16.819,-19.713,49.17439009,-121.67812651,0.27000001,
0.1250,0.3064,0.2745,0.8550,0.4460,-0.1072,-1.6598,-0.1342,0.6221,0.2269,849.9038,18.1800,-34.2600,-28.9200,-134.809,-16.819,-19.713,49.17439009,-121.67812651,0.27000001,
0.1420,0.3064,0.2745,0.8550,-0.1901,0.0961,-0.5230,-0.1342,0.6221,0.2269,849.9038,18.1800,-34.2600,-28.9200,-134.809,-16.819,-19.713,49.17439009,-121.67812651,0.27000001,
0.1650,0.4055,0.2560,0.9513,-0.1901,0.0961,-0.5230,-0.1342,0.6221,0.2269,849.9038,18.1800,-34.2600,-28.9200,-135.518,-13.903,-23.090,49.17439009,-121.67812651,0.27000001,
0.1670,0.4055,0.2560,0.9513,-0.1901,0.0961,-0.5230,-0.1342,0.6221,0.2269,849.9038,17.7600,-33.7800,-29.1600,-135.252,-13.903,-23.090,49.17439009,-121.67812651,0.27000001,
0.1690,0.4055,0.2560,0.9513,-0.1901,0.0961,-0.5230,0.1949,0.4048,0.2610,849.9038,17.7600,-33.7800,-29.1600,-135.252,-13.903,-23.090,49.17439009,-121.67812651,0.27000001,
0.2030,0.4055,0.2560,0.9513,0.9406,-0.0493,0.3545,0.1949,0.4048,0.2610,849.9038,17.7600,-33.7800,-29.1600,-135.252,-13.903,-23.090,49.17439009,-121.67812651,0.27000001,
0.2250,0.3220,0.2995,0.9000,0.9406,-0.0493,0.3545,0.1949,0.4048,0.2610,849.9038,17.7600,-33.7800,-29.1600,-134.201,-17.396,-19.687,49.17439009,-121.67812651,0.27000001,
0.2270,0.3220,0.2995,0.9000,0.9406,-0.0493,0.3545,0.1949,0.4048,0.2610,849.9038,17.4000,-33.3600,-29.4000,-133.916,-17.396,-19.687,49.17439009,-121.67812651,0.27000001,
0.2290,0.3220,0.2995,0.9000,0.9406,-0.0493,0.3545,0.3611,0.8714,0.5412,849.9038,17.4000,-33.3600,-29.4000,-133.916,-17.396,-19.687,49.17439009,-121.67812651,0.27000001,
0.2620,0.3220,0.2995,0.9000,0.4583,0.1841,-0.1986,0.3611,0.8714,0.5412,849.9038,17.4000,-33.3600,-29.4000,-133.916,-17.396,-19.687,49.17439009,-121.67812651,0.27000001,
0.2840,0.3347,0.2472,0.9347,0.4583,0.1841,-0.1986,0.3611,0.8714,0.5412,849.9038,17.4000,-33.3600,-29.4000,-135.868,-13.981,-19.702,49.17439009,-121.67812651,0.27000001,
0.2860,0.3347,0.2472,0.9347,0.4583,0.1841,-0.1986,0.3611,0.8714,0.5412,849.9038,17.1000,-32.8800,-29.7000,-135.470,-13.981,-19.702,49.17439009,-121.67812651,0.27000001,
0.2880,0.3347,0.2472,0.9347,0.4583,0.1841,-0.1986,-0.3451,0.2727,0.4655,849.9038,17.1000,-32.8800,-29.7000,-135.470,-13.981,-19.702,49.17439009,-121.67812651,0.27000001,
0.3020,0.3347,0.2472,0.9347,0.4583,0.1841,-0.1986,-0.3451,0.2727,0.4655,850.0029,17.1000,-32.8800,-29.7000,-135.470,-13.981,-19.702,49.17439009,-121.67812651,0.27000001,
0.3040,0.3347,0.2472,0.9347,0.4583,0.1841,-0.1986,-0.3451,0.2727,0.4655,850.0029,17.1000,-32.8800,-29.7000,-135.470,-13.981,-19.702,49.17439009,-121.67812651,0.27000001,
0.3230,0.3347,0.2472,0.9347,0.6336,-0.1171,0.0647,-0.3451,0.2727,0.4655,850.0029,17.1000,-32.8800,-29.7000,-135.470,-13.981,-19.702,49.17439009,-121.67812651,0.27000001,
0.3450,0.2248,0.1739,1.0436,0.6336,-0.1171,0.0647,-0.3451,0.2727,0.4655,850.0029,17.1000,-32.8800,-29.7000,-140.998,-9.251,-12.154,49.17439009,-121.67812651,0.27000001,
0.3470,0.2248,0.1739,1.0436,0.6336,-0.1171,0.0647,-0.3451,0.2727,0.4655,850.0029,16.8000,-32.4600,-29.9400,-140.835,-9.251,-12.154,49.17439009,-121.67812651,0.27000001,
0.3490,0.2248,0.1739,1.0436,0.6336,-0.1171,0.0647,-0.0362,0.2706,0.3153,850.0029,16.8000,-32.4600,-29.9400,-140.835,-9.251,-12.154,49.17439009,-121.67812651,0.27000001,
0.3850,0.2248,0.1739,1.0436,-0.3368,-0.5962,1.0388,-0.0362,0.2706,0.3153,850.0029,16.8000,-32.4600,-29.9400,-140.835,-9.251,-12.154,49.17439009,-121.67812651,0.27000001,
0.4060,0.2228,0.2208,0.9405,-0.3368,-0.5962,1.0388,-0.0362,0.2706,0.3153,850.0029,16.8000,-32.4600,-29.9400,-138.218,-12.867,-13.328,49.17439009,-121.67812651,0.27000001,
0.4080,0.2228,0.2208,0.9405,-0.3368,-0.5962,1.0388,-0.0362,0.2706,0.3153,850.0029,16.5000,-31.9800,-30.1800,-137.917,-12.867,-13.328,49.17439009,-121.67812651,0.27000001,
0.4100,0.2228,0.2208,0.9405,-0.3368,-0.5962,1.0388,0.2429,0.2173,0.2567,850.0029,16.5000,-31.9800,-30.1800,-137.917,-12.867,-13.328,49.17439009,-121.67812651,0.27000001,
0.4440,0.2228,0.2208,0.9405,-0.2548,-0.2065,0.0189,0.2429,0.2173,0.2567,850.0029,16.5000,-31.9800,-30.1800,-137.917,-12.867,-13.328,49.17439009,-121.67812651,0.27000001,
0.4640,0.1432,0.1998,0.9259,-0.2548,-0.2065,0.0189,0.2429,0.2173,0.2567,850.0029,16.5000,-31.9800,-30.1800,-140.728,-12.038,-8.790,49.17439009,-121.67812651,0.27000001,
0.4660,0.1432,0.1998,0.9259,-0.2548,-0.2065,0.0189,0.2429,0.2173,0.2567,850.0029,16.2600,-31.5600,-30.4800,-140.454,-12.038,-8.790,49.17439009,-121.67812651,0.27000001,
0.4680,0.1432,0.1998,0.9259,-0.2548,-0.2065,0.0189,0.1683,0.5252,0.2322,850.0029,16.2600,-31.5600,-30.4800,-140.454,-12.038,-8.790,49.17439009,-121.67812651,0.27000001,
0.4810,0.1432,0.1998,0.9259,-0.2548,-0.2065,0.0189,0.1683,0.5252,0.2322,849.9792,16.2600,-31.5600,-30.4800,-140.454,-12.038,-8.790,49.17439009,-121.67812651,0.27000001,
0.4840,0.1432,0.1998,0.9259,-0.2548,-0.2065,0.0189,0.1683,0.5252,0.2322,849.9792,16.2600,-31.5600,-30.4800,-140.454,-12.038,-8.790,49.17439009,-121.67812651,0.27000001,
0.5030,0.1432,0.1998,0.9259,-0.8731,-0.3793,-0.1747,0.1683,0.5252,0.2322,849.9792,16.2600,-31.5600,-30.4800,-140.454,-12.038,-8.790,49.17439009,-121.67812651,0.27000001,
0.5260,0.1554,0.1646,1.0876,-0.8731,-0.3793,-0.1747,0.1683,0.5252,0.2322,849.9792,16.2600,-31.5600,-30.4800,-143.000,-8.521,-8.131,49.17439009,-121.67812651,0.27000001,
0.5280,0.1554,0.1646,1.0876,-0.8731,-0.3793,-0.1747,0.1683,0.5252,0.2322,849.9792,16.0200,-31.0800,-30.7200,-142.747,-8.521,-8.131,49.17439009,-121.67812651,0.27000001,
0.5320,0.1554,0.1646,1.0876,-0.8731,-0.3793,-0.1747,-0.2333,1.3657,1.0163,849.9792,16.0200,-31.0800,-30.7200,-142.747,-8.521,-8.131,49.17439009,-121.67812651,0.27000001,
0.5670,0.1554,0.1646,1.0876,-0.1859,-0.5185,1.2399,-0.2333,1.3657,1.0163,849.9792,16.0200,-31.0800,-30.7200,-142.747,-8.521,-8.131,49.17439009,-121.67812651,0.27000001,
0.5880,0.0889,0.1548,0.9938,-0.1859,-0.5185,1.2399,-0.2333,1.3657,1.0163,849.9792,16.0200,-31.0800,-30.7200,-144.532,-8.821,-5.113,49.17439009,-121.67812651,0.27000001,
0.5920,0.0889,0.1548,0.9938,-0.1859,-0.5185,1.2399,-0.2333,1.3657,1.0163,849.9792,15.9000,-30.7200,-30.9600,-144.264,-8.821,-5.113,49.17439009,-121.67812651,0.27000001,
0.6040,0.0889,0.1548,0.9938,-0.1859,-0.5185,1.2399,0.6594,1.4743,1.1153,849.9792,15.9000,-30.7200,-30.9600,-144.264,-8.821,-5.113,49.17439009,-121.67812651,0.27000001,
0.6240,0.0889,0.1548,0.9938,-0.0905,-0.7725,0.2521,0.6594,1.4743,1.1153,849.9792,15.9000,-30.7200,-30.9600,-144.264,-8.821,-5.113,49.17439009,-121.67812651,0.27000001,
0.6490,0.0464,0.2271,0.9542,-0.0905,-0.7725,0.2521,0.6594,1.4743,1.1153,849.9792,15.9000,-30.7200,-30.9600,-142.809,-13.375,-2.785,49.17439009,-121.67812651,0.27000001,
0.6570,0.0464,0.2271,0.9542,-0.0905,-0.7725,0.2521,0.6594,1.4743,1.1153,849.9792,15.9600,-30.3600,-31.2600,-142.181,-13.375,-2.785,49.17439009,-121.67812651,0.27000001,
0.6650,0.0464,0.2271,0.9542,-0.0905,-0.7725,0.2521,0.3526,1.3912,0.6221,849.9792,15.9600,-30.3600,-31.2600,-142.181,-13.375,-2.785,49.17439009,-121.67812651,0.27000001,
0.6680,0.0464,0.2271,0.9542,-0.0905,-0.7725,0.2521,0.3526,1.3912,0.6221,849.9507,15.9600,-30.3600,-31.2600,-142.181,-13.375,-2.785,49.17439009,-121.67812651,0.27000001,
0.6710,0.0464,0.2271,0.9542,-0.0905,-0.7725,0.2521,0.3526,1.3912,0.6221,849.9507,15.9600,-30.3600,-31.2600,-142.181,-13.375,-2.785,49.17439009,-121.67812651,0.27000001,
0.6830,0.0464,0.2271,0.9542,0.0269,-0.2128,-0.1378,0.3526,1.3912,0.6221,849.9507,15.9600,-30.3600,-31.2600,-142.181,-13.375,-2.785,49.17439009,-121.67812651,0.27000001,
0.7050,-0.1329,0.4646,0.8022,0.0269,-0.2128,-0.1378,0.3526,1.3912,0.6221,849.9507,15.9600,-30.3600,-31.2600,-132.562,-29.742,9.406,49.17439009,-121.67812651,0.27000001,
0.7080,-0.1329,0.4646,0.8022,0.0269,-0.2128,-0.1378,0.3526,1.3912,0.6221,849.9507,16.1400,-30.1200,-31.4400,-131.246,-29.742,9.406,49.17439009,-121.67812651,0.27000001,
0.7120,-0.1329,0.4646,0.8022,0.0269,-0.2128,-0.1378,0.3547,1.3060,0.4506,849.9507,16.1400,-30.1200,-31.4400,-131.246,-29.742,9.406,49.17439009,-121.67812651,0.27000001,
0.7460,-0.1329,0.4646,0.8022,-0.7681,1.8282,-1.5433,0.3547,1.3060,0.4506,849.9507,16.1400,-30.1200,-31.4400,-131.246,-29.742,9.406,49.17439009,-121.67812651,0.27000001,
0.7690,0.0523,0.2076,1.1140,-0.7681,1.8282,-1.5433,0.3547,1.3060,0.4506,849.9507,16.1400,-30.1200,-31.4400,-143.755,-10.545,-2.687,49.17439009,-121.67812651,0.27000001,
0.7720,0.0523,0.2076,1.1140,-0.7681,1.8282,-1.5433,0.3547,1.3060,0.4506,849.9507,16.5600,-29.8800,-31.6200,-142.790,-10.545,-2.687,49.17439009,-121.67812651,0.27000001,
0.7750,0.0523,0.2076,1.1140,-0.7681,1.8282,-1.5433,-0.7169,0.0597,-0.5774,849.9507,16.5600,-29.8800,-31.6200,-142.790,-10.545,-2.687,49.17439009,-121.67812651,0.27000001,
0.8110,0.0523,0.2076,1.1140,0.8806,-0.5297,1.4586,-0.7169,0.0597,-0.5774,849.9507,16.5600,-29.8800,-31.6200,-142.790,-10.545,-2.687,49.17439009,-121.67812651,0.27000001,
0.8370,0.0914,0.3493,1.4633,0.8806,-0.5297,1.4586,-0.7169,0.0597,-0.5774,849.9507,16.5600,-29.8800,-31.6200,-139.932,-13.400,-3.573,49.17439009,-121.67812651,0.27000001,
0.8480,0.0914,0.3493,1.4633,0.8806,-0.5297,1.4586,-0.7169,0.0597,-0.5774,849.9507,17.1000,-29.8200,-31.6800,-139.030,-13.400,-3.573,49.17439009,-121.67812651,0.27000001,
0.8550,0.0914,0.3493,1.4633,0.8806,-0.5297,1.4586,0.4080,-0.9108,1.1942,849.9507,17.1000,-29.8200,-31.6800,-139.030,-13.400,-3.573,49.17439009,-121.67812651,0.27000001,
0.8580,0.0914,0.3493,1.4633,0.8806,-0.5297,1.4586,0.4080,-0.9108,1.1942,849.9814,17.1000,-29.8200,-31.6800,-139.030,-13.400,-3.573,49.17439009,-121.67812651,0.27000001,
0.8600,0.0914,0.3493,1.4633,0.8806,-0.5297,1.4586,0.4080,-0.9108,1.1942,849.9814,17.1000,-29.8200,-31.6800,-139.030,-13.400,-3.573,49.17439009,-121.67812651,0.27000001,
0.8620,0.0914,0.3493,1.4633,0.5942,1.1960,4.7950,0.4080,-0.9108,1.1942,849.9814,17.1000,-29.8200,-31.6800,-139.030,-13.400,-3.573,49.17439009,-121.67812651,0.27000001,
0.8840,0.2057,0.1973,0.6483,0.5942,1.1960,4.7950,0.4080,-0.9108,1.1942,849.9814,17.1000,-29.8200,-31.6800,-129.935,-16.179,-17.604,49.17439009,-121.67812651,0.27000001,
0.8860,0.2057,0.1973,0.6483,0.5942,1.1960,4.7950,0.4080,-0.9108,1.1942,849.9814,17.7600,-29.7600,-31.7400,-129.217,-16.179,-17.604,49.17439009,-121.67812651,0.27000001,
0.8870,0.2057,0.1973,0.6483,0.5942,1.1960,4.7950,0.1182,0.2748,-0.0799,849.9814,17.7600,-29.7600,-31.7400,-129.217,-16.179,-17.604,49.17439009,-121.67812651,0.27000001,
0.9230,0.2057,0.1973,0.6483,1.5221,-0.7894,-3.0544,0.1182,0.2748,-0.0799,849.9814,17.7600,-29.7600,-31.7400,-129.217,-16.179,-17.604,49.17439009,-121.67812651,0.27000001,
0.9460,0.2052,-0.1677,0.6469,1.5221,-0.7894,-3.0544,0.1182,0.2748,-0.0799,849.9814,17.7600,-29.7600,-31.7400,-142.730,13.877,-17.602,49.17439009,-121.67812651,0.27000001,
0.9490,0.2052,-0.1677,0.6469,1.5221,-0.7894,-3.0544,0.1182,0.2748,-0.0799,849.9814,18.3600,-29.8200,-31.7400,-142.151,13.877,-17.602,49.17439009,-121.67812651,0.27000001,
0.9510,0.2052,-0.1677,0.6469,1.5221,-0.7894,-3.0544,-3.2618,0.3494,0.1012,849.9814,18.3600,-29.8200,-31.7400,-142.151,13.877,-17.602,49.17439009,-121.67812651,0.27000001,
0.9840,0.2052,-0.1677,0.6469,1.7653,-2.8259,-3.3927,-3.2618,0.3494,0.1012,849.9814,18.3600,-29.8200,-31.7400,-142.151,13.877,-17.602,49.17439009,-121.67812651,0.27000001,
1.0150,-0.2018,-0.3748,1.3104,1.7653,-2.8259,-3.3927,-3.2618,0.3494,0.1012,849.9814,18.3600,-29.8200,-31.7400,-160.685,15.786,8.755,49.17439009,-121.67812651,0.27000001,
1.0230,-0.2018,-0.3748,1.3104,1.7653,-2.8259,-3.3927,-3.2618,0.3494,0.1012,849.9814,19.0200,-29.8800,-31.7400,-159.855,15.786,8.755,49.17439009,-121.67812651,0.27000001,
1.0290,-0.2018,-0.3748,1.3104,1.7653,-2.8259,-3.3927,-3.6539,1.8440,-1.1974,849.9814,19.0200,-29.8800,-31.7400,-159.855,15.786,8.755,49.17439009,-121.67812651,0.27000001,
1.0370,-0.2018,-0.3748,1.3104,1.7653,-2.8259,-3.3927,-3.6539,1.8440,-1.1974,850.0967,19.0200,-29.8800,-31.7400,-159.855,15.786,8.755,49.17439009,-121.67812651,0.27000001,
1.0390,-0.2018,-0.3748,1.3104,1.7653,-2.8259,-3.3927,-3.6539,1.8440,-1.1974,850.0967,19.0200,-29.8800,-31.7400,-159.855,15.786,8.755,49.17439009,-121.67812651,0.27000001,
1.0420,-0.2018,-0.3748,1.3104,-1.4814,-2.3616,3.1360,-3.6539,1.8440,-1.1974,850.0967,19.0200,-29.8800,-31.7400,-159.855,15.786,8.755,49.17439009,-121.67812651,0.27000001,
1.0630,-0.3396,-0.1877,0.9992,-1.4814,-2.3616,3.1360,-3.6539,1.8440,-1.1974,850.0967,19.0200,-29.8800,-31.7400,-167.701,10.085,18.772,49.17439009,-121.67812651,0.27000001,
1.0650,-0.3396,-0.1877,0.9992,-1.4814,-2.3616,3.1360,-3.6539,1.8440,-1.1974,850.0967,19.9200,-28.9800,-32.1000,-166.293,10.085,18.772,49.17439009,-121.67812651,0.27000001,
1.0670,-0.3396,-0.1877,0.9992,-1.4814,-2.3616,3.1360,-1.9388,1.6117,-1.3902,850.0967,19.9200,-28.9800,-32.1000,-166.293,10.085,18.772,49.17439009,-121.67812651,0.27000001,
1.1080,-0.3396,-0.1877,0.9992,-1.8014,0.6224,0.4226,-1.9388,1.6117,-1.3902,850.0967,19.9200,-28.9800,-32.1000,-166.293,10.085,18.772,49.17437369,-121.67813390,0.00000000,
1.1250,-0.3992,-0.0362,1.0768,-1.8014,0.6224,0.4226,-1.9388,1.6117,-1.3902,850.0967,19.9200,-28.9800,-32.1000,-165.987,1.806,20.340,49.17437369,-121.67813390,0.00000000,
1.1270,-0.3992,-0.0362,1.0768,-1.8014,0.6224,0.4226,-1.9388,1.6117,-1.3902,850.0967,21.4200,-27.6600,-32.4000,-162.990,1.806,20.340,49.17437369,-121.67813390,0.00000000,
1.1290,-0.3992,-0.0362,1.0768,-1.8014,0.6224,0.4226,-0.3494,1.1089,-1.2783,850.0967,21.4200,-27.6600,-32.4000,-162.990,1.806,20.340,49.17437369,-121.67813390,0.00000000,
1.1670,-0.3992,-0.0362,1.0768,-1.8868,2.4750,1.3846,-0.3494,1.1089,-1.2783,850.0967,21.4200,-27.6600,-32.4000,-162.990,1.806,20.340,49.17437369,-121.67813390,0.00000000,
1.1850,-0.4173,-0.2468,1.2493,-1.8868,2.4750,1.3846,-0.3494,1.1089,-1.2783,850.0967,21.4200,-27.6600,-32.4000,-163.573,10.613,18.469,49.17437369,-121.67813390,0.00000000,
1.1870,-0.4173,-0.2468,1.2493,-1.8868,2.4750,1.3846,-0.3494,1.1089,-1.2783,850.0967,22.9800,-26.1600,-32.5800,-160.687,10.613,18.469,49.17437369,-121.67813390,0.00000000,
1.1890,-0.4173,-0.2468,1.2493,-1.8868,2.4750,1.3846,-0.0277,-0.2961,-0.6093,850.0967,22.9800,-26.1600,-32.5800,-160.687,10.613,18.469,49.17437369,-121.67813390,0.00000000,
1.2020,-0.4173,-0.2468,1.2493,-1.8868,2.4750,1.3846,-0.0277,-0.2961,-0.6093,850.1399,22.9800,-26.1600,-32.5800,-160.687,10.613,18.469,49.17437369,-121.67813390,0.00000000,
1.2040,-0.4173,-0.2468,1.2493,-1.8868,2.4750,1.3846,-0.0277,-0.2961,-0.6093,850.1399,22.9800,-26.1600,-32.5800,-160.687,10.613,18.469,49.17437369,-121.67813390,0.00000000,
1.2240,-0.4173,-0.2468,1.2493,-1.8955,0.5927,3.1720,-0.0277,-0.2961,-0.6093,850.1399,22.9800,-26.1600,-32.5800,-160.687,10.613,18.469,49.17437369,-121.67813390,0.00000000,
1.2530,-0.4041,-0.5810,0.7148,-1.8955,0.5927,3.1720,-0.0277,-0.2961,-0.6093,850.1399,22.9800,-26.1600,-32.5800,-174.874,35.284,29.481,49.17437369,-121.67813390,0.00000000,
1.2600,-0.4041,-0.5810,0.7148,-1.8955,0.5927,3.1720,-0.0277,-0.2961,-0.6093,850.1399,24.5400,-24.6000,-32.7600,-173.135,35.284,29.481,49.17437369,-121.67813390,0.00000000,
1.2680,-0.4041,-0.5810,0.7148,-1.8955,0.5927,3.1720,0.8107,-0.5870,-0.5401,850.1399,24.5400,-24.6000,-32.7600,-173.135,35.284,29.481,49.17437369,-121.67813390,0.00000000,
1.2810,-0.4041,-0.5810,0.7148,-2.0360,-2.9242,-2.2037,0.8107,-0.5870,-0.5401,850.1399,24.5400,-24.6000,-32.7600,-173.135,35.284,29.481,49.17437369,-121.67813390,0.00000000,
1.3030,-0.2653,-0.4789,0.4983,-2.0360,-2.9242,-2.2037,0.8107,-0.5870,-0.5401,850.1399,24.5400,-24.6000,-32.7600,-172.061,40.307,28.032,49.17437369,-121.67813390,0.00000000,
1.3050,-0.2653,-0.4789,0.4983,-2.0360,-2.9242,-2.2037,0.8107,-0.5870,-0.5401,850.1399,26.1000,-22.9800,-33.0000,-170.354,40.307,28.032,49.17437369,-121.67813390,0.00000000,
1.3070,-0.2653,-0.4789,0.4983,-2.0360,-2.9242,-2.2037,-1.0653,-0.8511,-0.2216,850.1399,26.1000,-22.9800,-33.0000,-170.354,40.307,28.032,49.17437369,-121.67813390,0.00000000,
1.3420,-0.2653,-0.4789,0.4983,-1.0129,-1.4359,-4.2291,-1.0653,-0.8511,-0.2216,850.1399,26.1000,-22.9800,-33.0000,-170.354,40.307,28.032,49.17437369,-121.67813390,0.00000000,
1.3670,-0.0142,-0.0909,0.7461,-1.0129,-1.4359,-4.2291,-1.0653,-0.8511,-0.2216,850.1399,26.1000,-22.9800,-33.0000,-136.526,6.949,1.088,49.17437369,-121.67813390,0.00000000,
1.3710,-0.0142,-0.0909,0.7461,-1.0129,-1.4359,-4.2291,-1.0653,-0.8511,-0.2216,850.1399,27.6600,-21.4200,-33.1800,-133.157,6.949,1.088,49.17437369,-121.67813390,0.00000000,
1.3740,-0.0142,-0.0909,0.7461,-1.0129,-1.4359,-4.2291,-0.9151,-1.4509,0.5944,850.1399,27.6600,-21.4200,-33.1800,-133.157,6.949,1.088,49.17437369,-121.67813390,0.00000000,
1.4000,-0.0142,-0.0909,0.7461,-1.0129,-1.4359,-4.2291,-0.9151,-1.4509,0.5944,849.9209,27.6600,-21.4200,-33.1800,-133.157,6.949,1.088,49.17437369,-121.67813390,0.00000000,
1.4100,-0.0142,-0.0909,0.7461,-1.0129,-1.4359,-4.2291,-0.9151,-1.4509,0.5944,849.9209,27.6600,-21.4200,-33.1800,-133.157,6.949,1.088,49.17437369,-121.67813390,0.00000000,
1.4110,-0.0142,-0.0909,0.7461,1.0164,2.9612,-1.6327,-0.9151,-1.4509,0.5944,849.9209,27.6600,-21.4200,-33.1800,-133.157,6.949,1.088,49.17437369,-121.67813390,0.00000000,
1.4200,-0.1862,-0.2082,0.7216,1.0164,2.9612,-1.6327,-0.9151,-1.4509,0.5944,849.9209,27.6600,-21.4200,-33.1800,-149.288,15.610,14.466,49.17437369,-121.67813390,0.00000000,
1.4300,-0.1862,-0.2082,0.7216,1.0164,2.9612,-1.6327,-0.9151,-1.4509,0.5944,849.9209,29.1600,-19.7400,-33.3600,-146.141,15.610,14.466,49.17437369,-121.67813390,0.00000000,
1.4360,-0.1862,-0.2082,0.7216,1.0164,2.9612,-1.6327,0.5571,-0.9257,-0.2205,849.9209,29.1600,-19.7400,-33.3600,-146.141,15.610,14.466,49.17437369,-121.67813390,0.00000000,
1.4590,-0.1862,-0.2082,0.7216,-1.2768,1.6657,-1.9910,0.5571,-0.9257,-0.2205,849.9209,29.1600,-19.7400,-33.3600,-146.141,15.610,14.466,49.17437369,-121.67813390,0.00000000,
1.4810,-0.1695,-0.5454,0.4944,-1.2768,1.6657,-1.9910,0.5571,-0.9257,-0.2205,849.9209,29.1600,-19.7400,-33.3600,-158.825,46.216,18.928,49.17437369,-121.67813390,0.00000000,
1.4830,-0.1695,-0.5454,0.4944,-1.2768,1.6657,-1.9910,0.5571,-0.9257,-0.2205,849.9209,30.3000,-17.9400,-33.6600,-157.339,46.216,18.928,49.17437369,-121.67813390,0.00000000,
1.4840,-0.1695,-0.5454,0.4944,-1.2768,1.6657,-1.9910,0.2184,-0.6147,0.0905,849.9209,30.3000,-17.9400,-33.6600,-157.339,46.216,18.928,49.17437369,-121.67813390,0.00000000,
1.5190,-0.1695,-0.5454,0.4944,-1.3865,-1.7093,-4.2586,0.2184,-0.6147,0.0905,849.9209,30.3000,-17.9400,-33.6600,-157.339,46.216,18.928,49.17437369,-121.67813390,0.00000000,
1.5460,-0.0674,-0.7701,0.7803,-1.3865,-1.7093,-4.2586,0.2184,-0.6147,0.0905,849.9209,30.3000,-17.9400,-33.6600,-144.411,44.519,4.939,49.17437369,-121.67813390,0.00000000,
1.5480,-0.0674,-0.7701,0.7803,-1.3865,-1.7093,-4.2586,0.2184,-0.6147,0.0905,849.9209,31.3200,-16.0800,-33.9000,-142.631,44.519,4.939,49.17437369,-121.67813390,0.00000000,
1.5490,-0.0674,-0.7701,0.7803,-1.3865,-1.7093,-4.2586,-1.0866,1.1750,0.2056,849.9209,31.3200,-16.0800,-33.9000,-142.631,44.519,4.939,49.17437369,-121.67813390,0.00000000,
1.5590,-0.0674,-0.7701,0.7803,-1.3865,-1.7093,-4.2586,-1.0866,1.1750,0.2056,850.0730,31.3200,-16.0800,-33.9000,-142.631,44.519,4.939,49.17437369,-121.67813390,0.00000000,
1.5620,-0.0674,-0.7701,0.7803,-1.3865,-1.7093,-4.2586,-1.0866,1.1750,0.2056,850.0730,31.3200,-16.0800,-33.9000,-142.631,44.519,4.939,49.17437369,-121.67813390,0.00000000,
1.5800,-0.0674,-0.7701,0.7803,0.0755,-3.2777,-1.1513,-1.0866,1.1750,0.2056,850.0730,31.3200,-16.0800,-33.9000,-142.631,44.519,4.939,49.17437369,-121.67813390,0.00000000,
1.6070,-0.2253,-0.7066,0.8575,0.0755,-3.2777,-1.1513,-1.0866,1.1750,0.2056,850.0730,31.3200,-16.0800,-33.9000,-150.276,38.556,14.719,49.17437369,-121.67813390,0.00000000,
1.6120,-0.2253,-0.7066,0.8575,0.0755,-3.2777,-1.1513,-1.0866,1.1750,0.2056,850.0730,32.2200,-14.1000,-34.2600,-148.592,38.556,14.719,49.17437369,-121.67813390,0.00000000,
1.6180,-0.2253,-0.7066,0.8575,0.0755,-3.2777,-1.1513,-1.7204,1.0099,0.6701,850.0730,32.2200,-14.1000,-34.2600,-148.592,38.556,14.719,49.17437369,-121.67813390,0.00000000,
1.6450,-0.2253,-0.7066,0.8575,-0.8089,-1.7209,0.2094,-1.7204,1.0099,0.6701,850.0730,32.2200,-14.1000,-34.2600,-148.592,38.556,14.719,49.17437369,-121.67813390,0.00000000,
1.6760,-0.0279,-0.8888,0.9522,-0.8089,-1.7209,0.2094,-1.7204,1.0099,0.6701,850.0730,32.2200,-14.1000,-34.2600,-137.717,43.016,1.675,49.17437369,-121.67813390,0.00000000,
1.6820,-0.0279,-0.8888,0.9522,-0.8089,-1.7209,0.2094,-1.7204,1.0099,0.6701,850.0730,33.0000,-12.0000,-34.5600,-135.902,43.016,1.675,49.17437369,-121.67813390,0.00000000,
1.6890,-0.0279,-0.8888,0.9522,-0.8089,-1.7209,0.2094,-1.9473,1.0844,0.2567,850.0730,33.0000,-12.0000,-34.5600,-135.902,43.016,1.675,49.17437369,-121.67813390,0.00000000,
1.7030,-0.0279,-0.8888,0.9522,1.8934,-2.5141,2.0464,-1.9473,1.0844,0.2567,850.0730,33.0000,-12.0000,-34.5600,-135.902,43.016,1.675,49.17437369,-121.67813390,0.00000000,
1.7370,-0.1441,-0.7217,0.9434,1.8934,-2.5141,2.0464,-1.9473,1.0844,0.2567,850.0730,33.0000,-12.0000,-34.5600,-140.452,37.098,8.687,49.17437369,-121.67813390,0.00000000,
1.7420,-0.1441,-0.7217,0.9434,1.8934,-2.5141,2.0464,-1.9473,1.0844,0.2567,850.0730,33.8400,-9.1200,-34.8600,-137.852,37.098,8.687,49.17437369,-121.67813390,0.00000000,
1.7480,-0.1441,-0.7217,0.9434,1.8934,-2.5141,2.0464,-1.2101,0.9492,-0.1502,850.0730,33.8400,-9.1200,-34.8600,-137.852,37.098,8.687,49.17437369,-121.67813390,0.00000000,
1.7520,-0.1441,-0.7217,0.9434,1.8934,-2.5141,2.0464,-1.2101,0.9492,-0.1502,849.9875,33.8400,-9.1200,-34.8600,-137.852,37.098,8.687,49.17437369,-121.67813390,0.00000000,
1.7590,-0.1441,-0.7217,0.9434,1.8934,-2.5141,2.0464,-1.2101,0.9492,-0.1502,849.9875,33.8400,-9.1200,-34.8600,-137.852,37.098,8.687,49.17437369,-121.67813390,0.00000000,
1.7670,-0.1441,-0.7217,0.9434,1.0258,-0.2995,2.5868,-1.2101,0.9492,-0.1502,849.9875,33.8400,-9.1200,-34.8600,-137.852,37.098,8.687,49.17437369,-121.67813390,0.00000000,
1.7820,-0.2057,-0.7388,0.8364,1.0258,-0.2995,2.5868,-1.2101,0.9492,-0.1502,849.9875,33.8400,-9.1200,-34.8600,-144.362,40.622,13.817,49.17437369,-121.67813390,0.00000000,
1.7840,-0.2057,-0.7388,0.8364,1.0258,-0.2995,2.5868,-1.2101,0.9492,-0.1502,849.9875,34.6800,-5.8800,-34.8600,-141.520,40.622,13.817,49.17437369,-121.67813390,0.00000000,
1.7850,-0.2057,-0.7388,0.8364,1.0258,-0.2995,2.5868,-0.2983,0.7095,-0.5784,849.9875,34.6800,-5.8800,-34.8600,-141.520,40.622,13.817,49.17437369,-121.67813390,0.00000000,
1.8320,-0.2057,-0.7388,0.8364,0.5276,-0.2794,1.7752,-0.2983,0.7095,-0.5784,849.9875,34.6800,-5.8800,-34.8600,-141.520,40.622,13.817,49.17437369,-121.67813390,0.00000000,
1.8450,-0.3244,-0.7603,1.0544,0.5276,-0.2794,1.7752,-0.2983,0.7095,-0.5784,849.9875,34.6800,-5.8800,-34.8600,-142.222,34.576,17.104,49.17437369,-121.67813390,0.00000000,
1.8470,-0.3244,-0.7603,1.0544,0.5276,-0.2794,1.7752,-0.2983,0.7095,-0.5784,849.9875,35.5800,-2.5800,-34.8000,-138.573,34.576,17.104,49.17437369,-121.67813390,0.00000000,
1.8490,-0.3244,-0.7603,1.0544,0.5276,-0.2794,1.7752,-0.0138,0.3164,-1.2219,849.9875,35.5800,-2.5800,-34.8000,-138.573,34.576,17.104,49.17437369,-121.67813390,0.00000000,
1.8830,-0.3244,-0.7603,1.0544,-0.8103,-0.4310,3.9085,-0.0138,0.3164,-1.2219,849.9875,35.5800,-2.5800,-34.8000,-138.573,34.576,17.104,49.17437369,-121.67813390,0.00000000,
1.9040,-0.4984,-0.2571,1.0309,-0.8103,-0.4310,3.9085,-0.0138,0.3164,-1.2219,849.9875,35.5800,-2.5800,-34.8000,-127.103,12.653,25.801,49.17437369,-121.67813390,0.00000000,
1.9080,-0.4984,-0.2571,1.0309,-0.8103,-0.4310,3.9085,-0.0138,0.3164,-1.2219,849.9875,36.4800,0.8400,-34.7400,-118.217,12.653,25.801,49.17437369,-121.67813390,0.00000000,
1.9130,-0.4984,-0.2571,1.0309,-0.8103,-0.4310,3.9085,0.8895,-0.2961,-0.9428,849.9875,36.4800,0.8400,-34.7400,-118.217,12.653,25.801,49.17437369,-121.67813390,0.00000000,
1.9210,-0.4984,-0.2571,1.0309,-0.8103,-0.4310,3.9085,0.8895,-0.2961,-0.9428,850.0859,36.4800,0.8400,-34.7400,-118.217,12.653,25.801,49.17437369,-121.67813390,0.00000000,
1.9260,-0.4984,-0.2571,1.0309,-0.8103,-0.4310,3.9085,0.8895,-0.2961,-0.9428,850.0859,36.4800,0.8400,-34.7400,-118.217,12.653,25.801,49.17437369,-121.67813390,0.00000000,
1.9390,-0.4984,-0.2571,1.0309,-2.9154,4.1824,3.2195,0.8895,-0.2961,-0.9428,850.0859,36.4800,0.8400,-34.7400,-118.217,12.653,25.801,49.17437369,-121.67813390,0.00000000,
1.9610,-0.5736,0.0610,1.1711,-2.9154,4.1824,3.2195,0.8895,-0.2961,-0.9428,850.0859,36.4800,0.8400,-34.7400,-80.111,-2.679,26.096,49.17437369,-121.67813390,0.00000000,
1.9630,-0.5736,0.0610,1.1711,-2.9154,4.1824,3.2195,0.8895,-0.2961,-0.9428,850.0859,37.3200,4.2000,-34.7400,-70.602,-2.679,26.096,49.17437369,-121.67813390,0.00000000,
1.9670,-0.5736,0.0610,1.1711,-2.9154,4.1824,3.2195,2.4501,0.3366,-0.1161,850.0859,37.3200,4.2000,-34.7400,-70.602,-2.679,26.096,49.17437369,-121.67813390,0.00000000,
2.0030,-0.5736,0.0610,1.1711,-3.7754,6.3150,3.7263,2.4501,0.3366,-0.1161,850.0859,37.3200,4.2000,-34.7400,-70.602,-2.679,26.096,49.17437369,-121.67813390,0.00000000,
2.0230,-0.7676,0.0478,0.0488,-3.7754,6.3150,3.7263,2.4501,0.3366,-0.1161,850.0859,37.3200,4.2000,-34.7400,78.384,-3.558,86.362,49.17437369,-121.67813390,0.00000000,
2.0250,-0.7676,0.0478,0.0488,-3.7754,6.3150,3.7263,2.4501,0.3366,-0.1161,850.0859,38.1000,6.4800,-34.3200,74.276,-3.558,86.362,49.17437369,-121.67813390,0.00000000,
2.0260,-0.7676,0.0478,0.0488,-3.7754,6.3150,3.7263,2.3915,1.4828,1.4818,850.0859,38.1000,6.4800,-34.3200,74.276,-3.558,86.362,49.17437369,-121.67813390,0.00000000,
2.0590,-0.7676,0.0478,0.0488,-4.6431,4.4602,-8.0039,2.3915,1.4828,1.4818,850.0859,38.1000,6.4800,-34.3200,74.276,-3.558,86.362,49.17437369,-121.67813390,0.00000000,
2.0800,-0.5057,-0.2869,0.4959,-4.6431,4.4602,-8.0039,2.3915,1.4828,1.4818,850.0859,38.1000,6.4800,-34.3200,-170.683,22.050,45.562,49.17437369,-121.67813390,0.00000000,
2.0820,-0.5057,-0.2869,0.4959,-4.6431,4.4602,-8.0039,2.3915,1.4828,1.4818,850.0859,38.4000,7.5600,-33.9600,-167.815,22.050,45.562,49.17437369,-121.67813390,0.00000000,
2.0850,-0.5057,-0.2869,0.4959,-4.6431,4.4602,-8.0039,0.6179,1.9153,1.7683,850.0859,38.4000,7.5600,-33.9600,-167.815,22.050,45.562,49.17437369,-121.67813390,0.00000000,
2.0980,-0.5057,-0.2869,0.4959,-4.6431,4.4602,-8.0039,0.6179,1.9153,1.7683,849.9167,38.4000,7.5600,-33.9600,-167.815,22.050,45.562,49.17437369,-121.67813390,0.00000000,
2.1000,-0.5057,-0.2869,0.4959,-4.6431,4.4602,-8.0039,0.6179,1.9153,1.7683,849.9167,38.4000,7.5600,-33.9600,-167.815,22.050,45.562,49.17437369,-121.67813390,0.00000000,
2.1180,-0.5057,-0.2869,0.4959,-0.7315,0.7206,-3.2551,0.6179,1.9153,1.7683,849.9167,38.4000,7.5600,-33.9600,-167.815,22.050,45.562,49.17437369,-121.67813390,0.00000000,
2.1410,-0.3870,-0.6758,1.0207,-0.7315,0.7206,-3.2551,0.6179,1.9153,1.7683,849.9167,38.4000,7.5600,-33.9600,-126.179,31.763,20.764,49.17437369,-121.67813390,0.00000000,
2.1420,-0.3870,-0.6758,1.0207,-0.7315,0.7206,-3.2551,0.6179,1.9153,1.7683,849.9167,39.1200,7.9800,-33.4800,-124.520,31.763,20.764,49.17437369,-121.67813390,0.00000000,
2.1440,-0.3870,-0.6758,1.0207,-0.7315,0.7206,-3.2551,-0.9832,1.3508,0.5742,849.9167,39.1200,7.9800,-33.4800,-124.520,31.763,20.764,49.17437369,-121.67813390,0.00000000,
2.1810,-0.3870,-0.6758,1.0207,1.1693,-3.3377,2.2076,-0.9832,1.3508,0.5742,849.9167,39.1200,7.9800,-33.4800,-124.520,31.763,20.764,49.17437369,-121.67813390,0.00000000,
2.2010,-0.1603,-0.4564,0.9654,1.1693,-3.3377,2.2076,-0.9832,1.3508,0.5742,849.9167,39.1200,7.9800,-33.4800,-105.907,25.004,9.425,49.17437369,-121.67813390,0.00000000,
2.2030,-0.1603,-0.4564,0.9654,1.1693,-3.3377,2.2076,-0.9832,1.3508,0.5742,849.9167,39.8400,8.3400,-32.9400,-104.761,25.004,9.425,49.17437369,-121.67813390,0.00000000,
2.2050,-0.1603,-0.4564,0.9654,1.1693,-3.3377,2.2076,-0.9140,-0.3111,0.7830,849.9167,39.8400,8.3400,-32.9400,-104.761,25.004,9.425,49.17437369,-121.67813390,0.00000000,
2.2400,-0.1603,-0.4564,0.9654,3.5263,-1.1015,1.7915,-0.9140,-0.3111,0.7830,849.9167,39.8400,8.3400,-32.9400,-104.761,25.004,9.425,49.17437369,-121.67813390,0.00000000,
2.2600,-0.5751,-0.5346,0.8965,3.5263,-1.1015,1.7915,-0.9140,-0.3111,0.7830,849.9167,39.8400,8.3400,-32.9400,-132.896,26.652,32.679,49.17437369,-121.67813390,0.00000000,
2.2620,-0.5751,-0.5346,0.8965,3.5263,-1.1015,1.7915,-0.9140,-0.3111,0.7830,849.9167,40.6800,8.7000,-32.3400,-130.414,26.652,32.679,49.17437369,-121.67813390,0.00000000,
2.2660,-0.5751,-0.5346,0.8965,3.5263,-1.1015,1.7915,-0.9737,-0.8991,0.2812,849.9167,40.6800,8.7000,-32.3400,-130.414,26.652,32.679,49.17437369,-121.67813390,0.00000000,
2.2810,-0.5751,-0.5346,0.8965,3.5263,-1.1015,1.7915,-0.9737,-0.8991,0.2812,849.9739,40.6800,8.7000,-32.3400,-130.414,26.652,32.679,49.17437369,-121.67813390,0.00000000,
2.2870,-0.5751,-0.5346,0.8965,3.5263,-1.1015,1.7915,-0.9737,-0.8991,0.2812,849.9739,40.6800,8.7000,-32.3400,-130.414,26.652,32.679,49.17437369,-121.67813390,0.00000000,
2.3010,-0.5751,-0.5346,0.8965,-0.7778,-1.3474,1.2083,-0.9737,-0.8991,0.2812,849.9739,40.6800,8.7000,-32.3400,-130.414,26.652,32.679,49.17437369,-121.67813390,0.00000000,
2.3250,-0.7652,-0.6294,0.7182,-0.7778,-1.3474,1.2083,-0.9737,-0.8991,0.2812,849.9739,40.6800,8.7000,-32.3400,-167.476,30.953,46.814,49.17437369,-121.67813390,0.00000000,
2.3290,-0.7652,-0.6294,0.7182,-0.7778,-1.3474,1.2083,-0.9737,-0.8991,0.2812,849.9739,41.5200,9.1200,-31.8000,-164.569,30.953,46.814,49.17437369,-121.67813390,0.00000000,
2.3320,-0.7652,-0.6294,0.7182,-0.7778,-1.3474,1.2083,-0.2951,-0.6946,0.3249,849.9739,41.5200,9.1200,-31.8000,-164.569,30.953,46.814,49.17437369,-121.67813390,0.00000000,
2.3630,-0.7652,-0.6294,0.7182,-3.0314,-2.1393,-0.7065,-0.2951,-0.6946,0.3249,849.9739,41.5200,9.1200,-31.8000,-164.569,30.953,46.814,49.17437369,-121.67813390,0.00000000,
2.3880,-0.2790,-0.6714,0.2506,-3.0314,-2.1393,-0.7065,-0.2951,-0.6946,0.3249,849.9739,41.5200,9.1200,-31.8000,-174.317,60.814,48.070,49.17437369,-121.67813390,0.00000000,
2.3920,-0.2790,-0.6714,0.2506,-3.0314,-2.1393,-0.7065,-0.2951,-0.6946,0.3249,849.9739,42.3600,9.3600,-31.2000,-172.943,60.814,48.070,49.17437369,-121.67813390,0.00000000,
2.3980,-0.2790,-0.6714,0.2506,-3.0314,-2.1393,-0.7065,0.1395,-0.5380,0.4314,849.9739,42.3600,9.3600,-31.2000,-172.943,60.814,48.070,49.17437369,-121.67813390,0.00000000,
2.4230,-0.2790,-0.6714,0.2506,0.4198,-1.8772,-5.5509,0.1395,-0.5380,0.4314,849.9739,42.3600,9.3600,-31.2000,-172.943,60.814,48.070,49.17437369,-121.67813390,0.00000000,
2.4500,-0.2858,-0.6480,0.9029,0.4198,-1.8772,-5.5509,0.1395,-0.5380,0.4314,849.9739,42.3600,9.3600,-31.2000,-117.746,34.379,17.567,49.17437369,-121.67813390,0.00000000,
2.4540,-0.2858,-0.6480,0.9029,0.4198,-1.8772,-5.5509,0.1395,-0.5380,0.4314,849.9739,43.5000,9.5400,-30.4800,-116.298,34.379,17.567,49.17437369,-121.67813390,0.00000000,
2.4580,-0.2858,-0.6480,0.9029,0.4198,-1.8772,-5.5509,-2.7878,-2.2594,0.4229,849.9739,43.5000,9.5400,-30.4800,-116.298,34.379,17.567,49.17437369,-121.67813390,0.00000000,
2.4620,-0.2858,-0.6480,0.9029,0.4198,-1.8772,-5.5509,-2.7878,-2.2594,0.4229,850.1216,43.5000,9.5400,-30.4800,-116.298,34.379,17.567,49.17437369,-121.67813390,0.00000000,
2.4650,-0.2858,-0.6480,0.9029,0.4198,-1.8772,-5.5509,-2.7878,-2.2594,0.4229,850.1216,43.5000,9.5400,-30.4800,-116.298,34.379,17.567,49.17437369,-121.67813390,0.00000000,
2.4790,-0.2858,-0.6480,0.9029,0.0178,-1.1641,1.0170,-2.7878,-2.2594,0.4229,850.1216,43.5000,9.5400,-30.4800,-116.298,34.379,17.567,49.17437369,-121.67813390,0.00000000,
2.5040,-0.4774,-0.4125,1.2713,0.0178,-1.1641,1.0170,-2.7878,-2.2594,0.4229,850.1216,43.5000,9.5400,-30.4800,-96.856,16.895,20.581,49.17437369,-121.67813390,0.00000000,
2.5070,-0.4774,-0.4125,1.2713,0.0178,-1.1641,1.0170,-2.7878,-2.2594,0.4229,850.1216,44.4600,9.9000,-29.9400,-95.903,16.895,20.581,49.17437369,-121.67813390,0.00000000,
2.5110,-0.4774,-0.4125,1.2713,0.0178,-1.1641,1.0170,-0.0820,-0.5454,0.4037,850.1216,44.4600,9.9000,-29.9400,-95.903,16.895,20.581,49.17437369,-121.67813390,0.00000000,
2.5390,-0.4774,-0.4125,1.2713,-1.3613,0.8074,4.6070,-0.0820,-0.5454,0.4037,850.1216,44.4600,9.9000,-29.9400,-95.903,16.895,20.581,49.17437369,-121.67813390,0.00000000,
2.5630,-0.3376,-0.3675,0.4109,-1.3613,0.8074,4.6070,-0.0820,-0.5454,0.4037,850.1216,44.4600,9.9000,-29.9400,-143.921,34.647,39.412,49.17437369,-121.67813390,0.00000000,
2.5660,-0.3376,-0.3675,0.4109,-1.3613,0.8074,4.6070,-0.0820,-0.5454,0.4037,850.1216,45.3000,10.2600,-29.4000,-141.891,34.647,39.412,49.17437369,-121.67813390,0.00000000,
2.5700,-0.3376,-0.3675,0.4109,-1.3613,0.8074,4.6070,0.4815,0.0937,0.4037,850.1216,45.3000,10.2600,-29.4000,-141.891,34.647,39.412,49.17437369,-121.67813390,0.00000000,
2.6000,-0.3376,-0.3675,0.4109,-0.6516,1.3604,-4.0041,0.4815,0.0937,0.4037,850.1216,45.3000,10.2600,-29.4000,-141.891,34.647,39.412,49.17437369,-121.67813390,0.00000000,
2.6330,-0.2751,-0.3738,0.7509,-0.6516,1.3604,-4.0041,0.4815,0.0937,0.4037,850.1216,45.3000,10.2600,-29.4000,-105.505,25.054,20.119,49.17437369,-121.67813390,0.00000000,
2.6590,-0.2751,-0.3738,0.7509,-0.6516,1.3604,-4.0041,0.4815,0.0937,0.4037,850.1216,46.0800,10.5600,-28.8000,-104.452,25.054,20.119,49.17437369,-121.67813390,0.00000000,
2.6720,-0.2751,-0.3738,0.7509,-0.6516,1.3604,-4.0041,-0.4208,-1.8876,-0.1555,850.1216,46.0800,10.5600,-28.8000,-104.452,25.054,20.119,49.17437369,-121.67813390,0.00000000,
2.6780,-0.2751,-0.3738,0.7509,-0.6516,1.3604,-4.0041,-0.4208,-1.8876,-0.1555,850.0164,46.0800,10.5600,-28.8000,-104.452,25.054,20.119,49.17437369,-121.67813390,0.00000000,
2.6870,-0.2751,-0.3738,0.7509,-0.6516,1.3604,-4.0041,-0.4208,-1.8876,-0.1555,850.0164,46.0800,10.5600,-28.8000,-104.452,25.054,20.119,49.17437369,-121.67813390,0.00000000,
2.6920,-0.2751,-0.3738,0.7509,-0.7591,1.7722,-0.5699,-0.4208,-1.8876,-0.1555,850.0164,46.0800,10.5600,-28.8000,-104.452,25.054,20.119,49.17437369,-121.67813390,0.00000000,
2.6970,-0.3352,-0.5810,0.7123,-0.7591,1.7722,-0.5699,-0.4208,-1.8876,-0.1555,850.0164,46.0800,10.5600,-28.8000,-122.330,36.429,25.199,49.17437369,-121.67813390,0.00000000,
2.7010,-0.3352,-0.5810,0.7123,-0.7591,1.7722,-0.5699,-0.4208,-1.8876,-0.1555,850.0164,46.3800,10.2600,-28.4400,-122.131,36.429,25.199,49.17437369,-121.67813390,0.00000000,
2.7060,-0.3352,-0.5810,0.7123,-0.7591,1.7722,-0.5699,-1.1121,-1.3742,-0.1108,850.0164,46.3800,10.2600,-28.4400,-122.131,36.429,25.199,49.17437369,-121.67813390,0.00000000,
2.7160,-0.3352,-0.5810,0.7123,-1.7668,0.2890,-0.6394,-1.1121,-1.3742,-0.1108,850.0164,46.3800,10.2600,-28.4400,-122.131,36.429,25.199,49.17437369,-121.67813390,0.00000000,
2.7380,-0.2619,-0.7173,0.7035,-1.7668,0.2890,-0.6394,-1.1121,-1.3742,-0.1108,850.0164,46.3800,10.2600,-28.4400,-123.466,43.698,20.418,49.17437369,-121.67813390,0.00000000,
2.7400,-0.2619,-0.7173,0.7035,-1.7668,0.2890,-0.6394,-1.1121,-1.3742,-0.1108,850.0164,46.2600,9.7800,-28.4400,-123.932,43.698,20.418,49.17437369,-121.67813390,0.00000000,
2.7440,-0.2619,-0.7173,0.7035,-1.7668,0.2890,-0.6394,-1.3785,-1.1239,0.6306,850.0164,46.2600,9.7800,-28.4400,-123.932,43.698,20.418,49.17437369,-121.67813390,0.00000000,
2.7840,-0.2619,-0.7173,0.7035,-0.9863,-0.4904,-0.2402,-1.3785,-1.1239,0.6306,850.0164,46.2600,9.7800,-28.4400,-123.932,43.698,20.418,49.17437369,-121.67813390,0.00000000,
2.8120,0.2897,-0.7325,0.8345,-0.9863,-0.4904,-0.2402,-1.3785,-1.1239,0.6306,850.0164,46.2600,9.7800,-28.4400,-89.930,39.666,-19.148,49.17437369,-121.67813390,0.00000000,
2.8190,0.2897,-0.7325,0.8345,-0.9863,-0.4904,-0.2402,-1.3785,-1.1239,0.6306,850.0164,45.9000,9.3600,-28.5000,-90.402,39.666,-19.148,49.17437369,-121.67813390,0.00000000,
2.8330,0.2897,-0.7325,0.8345,-0.9863,-0.4904,-0.2402,-0.8096,1.2006,-0.3526,850.0164,45.9000,9.3600,-28.5000,-90.402,39.666,-19.148,49.17437369,-121.67813390,0.00000000,
2.8380,0.2897,-0.7325,0.8345,-0.9863,-0.4904,-0.2402,-0.8096,1.2006,-0.3526,850.1936,45.9000,9.3600,-28.5000,-90.402,39.666,-19.148,49.17437369,-121.67813390,0.00000000,
2.8480,0.2897,-0.7325,0.8345,-0.9863,-0.4904,-0.2402,-0.8096,1.2006,-0.3526,850.1936,45.9000,9.3600,-28.5000,-90.402,39.666,-19.148,49.17437369,-121.67813390,0.00000000,
2.8520,0.2897,-0.7325,0.8345,4.7267,-0.6866,1.0741,-0.8096,1.2006,-0.3526,850.1936,45.9000,9.3600,-28.5000,-90.402,39.666,-19.148,49.17437369,-121.67813390,0.00000000,
2.8650,-0.0806,-0.6245,0.4675,4.7267,-0.6866,1.0741,-0.8096,1.2006,-0.3526,850.1936,45.9000,9.3600,-28.5000,-119.566,52.776,9.784,49.17437369,-121.67813390,0.00000000,
2.8700,-0.0806,-0.6245,0.4675,4.7267,-0.6866,1.0741,-0.8096,1.2006,-0.3526,850.1936,45.6000,9.1200,-28.5000,-119.859,52.776,9.784,49.17437369,-121.67813390,0.00000000,
2.8740,-0.0806,-0.6245,0.4675,4.7267,-0.6866,1.0741,0.0607,1.6128,-0.0256,850.1936,45.6000,9.1200,-28.5000,-119.859,52.776,9.784,49.17437369,-121.67813390,0.00000000,
2.8960,-0.0806,-0.6245,0.4675,1.7674,0.5350,-2.1515,0.0607,1.6128,-0.0256,850.1936,45.6000,9.1200,-28.5000,-119.859,52.776,9.784,49.17437369,-121.67813390,0.00000000,
2.9180,-0.4852,-0.5947,0.6459,1.7674,0.5350,-2.1515,0.0607,1.6128,-0.0256,850.1936,45.6000,9.1200,-28.5000,-139.193,36.360,36.914,49.17437369,-121.67813390,0.00000000,
2.9200,-0.4852,-0.5947,0.6459,1.7674,0.5350,-2.1515,0.0607,1.6128,-0.0256,850.1936,45.3000,8.9400,-28.5600,-139.684,36.360,36.914,49.17437369,-121.67813390,0.00000000,
2.9220,-0.4852,-0.5947,0.6459,1.7674,0.5350,-2.1515,-0.3973,1.8173,-0.3025,850.1936,45.3000,8.9400,-28.5600,-139.684,36.360,36.914,49.17437369,-121.67813390,0.00000000,
2.9560,-0.4852,-0.5947,0.6459,-2.1002,1.3121,0.1539,-0.3973,1.8173,-0.3025,850.1936,45.3000,8.9400,-28.5600,-139.684,36.360,36.914,49.17437369,-121.67813390,0.00000000,
2.9800,-0.1187,-0.6045,0.8086,-2.1002,1.3121,0.1539,-0.3973,1.8173,-0.3025,850.1936,45.3000,8.9400,-28.5600,-108.400,36.488,8.354,49.17437369,-121.67813390,0.00000000,
2.9830,-0.1187,-0.6045,0.8086,-2.1002,1.3121,0.1539,-0.3973,1.8173,-0.3025,850.1936,44.9400,9.0000,-28.5600,-108.450,36.488,8.354,49.17437369,-121.67813390,0.00000000,
2.9860,-0.1187,-0.6045,0.8086,-2.1002,1.3121,0.1539,-1.0823,0.2525,-0.1033,850.1936,44.9400,9.0000,-28.5600,-108.450,36.488,8.354,49.17437369,-121.67813390,0.00000000,
2.9980,-0.1187,-0.6045,0.8086,-2.1002,1.3121,0.1539,-1.0823,0.2525,-0.1033,850.1162,44.9400,9.0000,-28.5600,-108.450,36.488,8.354,49.17437369,-121.67813390,0.00000000,
3.0020,-0.1187,-0.6045,0.8086,-2.1002,1.3121,0.1539,-1.0823,0.2525,-0.1033,850.1162,44.9400,9.0000,-28.5600,-108.450,36.488,8.354,49.17437369,-121.67813390,0.00000000,
3.0180,-0.1187,-0.6045,0.8086,1.4124,1.2575,1.7629,-1.0823,0.2525,-0.1033,850.1162,44.9400,9.0000,-28.5600,-108.450,36.488,8.354,49.17437369,-121.67813390,0.00000000,
3.0410,-0.4031,-0.9592,0.8814,1.4124,1.2575,1.7629,-1.0823,0.2525,-0.1033,850.1162,44.9400,9.0000,-28.5600,-130.797,44.703,24.577,49.17437369,-121.67813390,0.00000000,
3.0460,-0.4031,-0.9592,0.8814,1.4124,1.2575,1.7629,-1.0823,0.2525,-0.1033,850.1162,44.6400,9.9000,-28.3200,-129.953,44.703,24.577,49.17437369,-121.67813390,0.00000000,
3.0490,-0.4031,-0.9592,0.8814,1.4124,1.2575,1.7629,-0.2898,0.5614,-0.2312,850.1162,44.6400,9.9000,-28.3200,-129.953,44.703,24.577,49.17437369,-121.67813390,0.00000000,
3.0780,-0.4031,-0.9592,0.8814,-1.3561,-1.7858,3.0287,-0.2898,0.5614,-0.2312,850.1162,44.6400,9.9000,-28.3200,-129.953,44.703,24.577,49.17437369,-121.67813390,0.00000000,
3.1020,-0.4534,-1.0379,0.6068,-1.3561,-1.7858,3.0287,-0.2898,0.5614,-0.2312,850.1162,44.6400,9.9000,-28.3200,-151.102,53.876,36.769,49.17437369,-121.67813390,0.00000000,
3.1060,-0.4534,-1.0379,0.6068,-1.3561,-1.7858,3.0287,-0.2898,0.5614,-0.2312,850.1162,43.8600,11.5200,-28.2000,-150.800,53.876,36.769,49.17437369,-121.67813390,0.00000000,
3.1090,-0.4534,-1.0379,0.6068,-1.3561,-1.7858,3.0287,-0.3121,0.1385,-0.4016,850.1162,43.8600,11.5200,-28.2000,-150.800,53.876,36.769,49.17437369,-121.67813390,0.00000000,
3.1370,-0.4534,-1.0379,0.6068,-1.7295,-2.4796,0.5020,-0.3121,0.1385,-0.4016,850.1162,43.8600,11.5200,-28.2000,-150.800,53.876,36.769,49.17437369,-121.67813390,0.00000000,
3.1610,-0.4446,-0.8263,0.5174,-1.7295,-2.4796,0.5020,-0.3121,0.1385,-0.4016,850.1162,43.8600,11.5200,-28.2000,-154.499,50.457,40.676,49.17437369,-121.67813390,0.00000000,
3.1680,-0.4446,-0.8263,0.5174,-1.7295,-2.4796,0.5020,-0.3121,0.1385,-0.4016,850.1162,43.1400,13.3200,-28.0200,-153.964,50.457,40.676,49.17437369,-121.67813390,0.00000000,
3.1710,-0.4446,-0.8263,0.5174,-1.7295,-2.4796,0.5020,-0.4538,0.0735,0.2898,850.1162,43.1400,13.3200,-28.0200,-153.964,50.457,40.676,49.17437369,-121.67813390,0.00000000,
3.1790,-0.4446,-0.8263,0.5174,-1.7295,-2.4796,0.5020,-0.4538,0.0735,0.2898,850.1726,43.1400,13.3200,-28.0200,-153.964,50.457,40.676,49.17437369,-121.67813390,0.00000000,
3.1830,-0.4446,-0.8263,0.5174,-1.7295,-2.4796,0.5020,-0.4538,0.0735,0.2898,850.1726,43.1400,13.3200,-28.0200,-153.964,50.457,40.676,49.17437369,-121.67813390,0.00000000,
3.1970,-0.4446,-0.8263,0.5174,-1.1200,-0.6398,-0.4131,-0.4538,0.0735,0.2898,850.1726,43.1400,13.3200,-28.0200,-153.964,50.457,40.676,49.17437369,-121.67813390,0.00000000,
3.2180,-0.3025,-0.5072,0.5218,-1.1200,-0.6398,-0.4131,-0.4538,0.0735,0.2898,850.1726,43.1400,13.3200,-28.0200,-129.722,40.066,30.099,49.17437369,-121.67813390,0.00000000,
3.2220,-0.3025,-0.5072,0.5218,-1.1200,-0.6398,-0.4131,-0.4538,0.0735,0.2898,850.1726,42.3000,15.2400,-27.7800,-127.611,40.066,30.099,49.17437369,-121.67813390,0.00000000,
3.2250,-0.3025,-0.5072,0.5218,-1.1200,-0.6398,-0.4131,0.5337,0.0107,0.0905,850.1726,42.3000,15.2400,-27.7800,-127.611,40.066,30.099,49.17437369,-121.67813390,0.00000000,
3.2590,-0.3025,-0.5072,0.5218,-0.0347,2.5258,-0.4890,0.5337,0.0107,0.0905,850.1726,42.3000,15.2400,-27.7800,-127.611,40.066,30.099,49.17437369,-121.67813390,0.00000000,
3.2770,0.0215,-0.5566,1.1013,-0.0347,2.5258,-0.4890,0.5337,0.0107,0.0905,850.1726,42.3000,15.2400,-27.7800,-88.064,26.808,-1.118,49.17437369,-121.67813390,0.00000000,
3.2790,0.0215,-0.5566,1.1013,-0.0347,2.5258,-0.4890,0.5337,0.0107,0.0905,850.1726,41.5800,17.2800,-27.5400,-85.424,26.808,-1.118,49.17437369,-121.67813390,0.00000000,
3.2810,0.0215,-0.5566,1.1013,-0.0347,2.5258,-0.4890,0.2152,1.5766,-0.6509,850.1726,41.5800,17.2800,-27.5400,-85.424,26.808,-1.118,49.17437369,-121.67813390,0.00000000,
3.3220,0.0215,-0.5566,1.1013,2.0996,1.8550,4.5337,0.2152,1.5766,-0.6509,850.1726,41.5800,17.2800,-27.5400,-85.424,26.808,-1.118,49.17437369,-121.67813390,0.00000000,
3.3580,-0.4754,-1.2206,0.4934,2.0996,1.8550,4.5337,0.2152,1.5766,-0.6509,850.1726,41.5800,17.2800,-27.5400,-162.321,60.692,43.935,49.17437369,-121.67813390,0.00000000,
3.3710,-0.4754,-1.2206,0.4934,2.0996,1.8550,4.5337,0.2152,1.5766,-0.6509,850.1726,40.8600,19.3200,-27.2400,-161.989,60.692,43.935,49.17437369,-121.67813390,0.00000000,
3.3760,-0.4754,-1.2206,0.4934,2.0996,1.8550,4.5337,-0.3079,1.9260,-0.2312,850.1726,40.8600,19.3200,-27.2400,-161.989,60.692,43.935,49.17437369,-121.67813390,0.00000000,
3.3850,-0.4754,-1.2206,0.4934,2.0996,1.8550,4.5337,-0.3079,1.9260,-0.2312,849.8943,40.8600,19.3200,-27.2400,-161.989,60.692,43.935,49.17437369,-121.67813390,0.00000000,
3.3900,-0.4754,-1.2206,0.4934,2.0996,1.8550,4.5337,-0.3079,1.9260,-0.2312,849.8943,40.8600,19.3200,-27.2400,-161.989,60.692,43.935,49.17437369,-121.67813390,0.00000000,
3.3940,-0.4754,-1.2206,0.4934,-2.5154,-4.4160,-1.0492,-0.3079,1.9260,-0.2312,849.8943,40.8600,19.3200,-27.2400,-161.989,60.692,43.935,49.17437369,-121.67813390,0.00000000,
3.3970,-0.4099,-0.8141,0.4715,-2.5154,-4.4160,-1.0492,-0.3079,1.9260,-0.2312,849.8943,40.8600,19.3200,-27.2400,-153.342,52.496,41.008,49.17437369,-121.67813390,0.00000000,
3.3990,-0.4099,-0.8141,0.4715,-2.5154,-4.4160,-1.0492,-0.3079,1.9260,-0.2312,849.8943,40.0800,21.4800,-26.9400,-152.276,52.496,41.008,49.17437369,-121.67813390,0.00000000,
3.4020,-0.4099,-0.8141,0.4715,-2.5154,-4.4160,-1.0492,0.1587,-0.4357,0.1992,849.8943,40.0800,21.4800,-26.9400,-152.276,52.496,41.008,49.17437369,-121.67813390,0.00000000,
3.4360,-0.4099,-0.8141,0.4715,-1.8029,-0.4558,-1.2689,0.1587,-0.4357,0.1992,849.8943,40.0800,21.4800,-26.9400,-152.276,52.496,41.008,49.17437369,-121.67813390,0.00000000,
3.4650,-0.2751,-0.4198,0.6127,-1.8029,-0.4558,-1.2689,0.1587,-0.4357,0.1992,849.8943,40.0800,21.4800,-26.9400,-97.836,32.008,24.180,49.17437369,-121.67813390,0.00000000,
3.4740,-0.2751,-0.4198,0.6127,-1.8029,-0.4558,-1.2689,0.1587,-0.4357,0.1992,849.8943,39.6600,23.4600,-26.5200,-93.481,32.008,24.180,49.17437369,-121.67813390,0.00000000,
3.4780,-0.2751,-0.4198,0.6127,-1.8029,-0.4558,-1.2689,-0.2684,0.4730,-0.0341,849.8943,39.6600,23.4600,-26.5200,-93.481,32.008,24.180,49.17437369,-121.67813390,0.00000000,
3.4950,-0.2751,-0.4198,0.6127,-0.3458,3.5466,0.3503,-0.2684,0.4730,-0.0341,849.8943,39.6600,23.4600,-26.5200,-93.481,32.008,24.180,49.17437369,-121.67813390,0.00000000,
3.5170,-0.2463,-0.4520,0.2965,-0.3458,3.5466,0.3503,-0.2684,0.4730,-0.0341,849.8943,39.6600,23.4600,-26.5200,-145.285,49.545,39.709,49.17437369,-121.67813390,0.00000000,
3.5180,-0.2463,-0.4520,0.2965,-0.3458,3.5466,0.3503,-0.2684,0.4730,-0.0341,849.8943,39.2400,25.3200,-26.1000,-142.991,49.545,39.709,49.17437369,-121.67813390,0.00000000,
3.5200,-0.2463,-0.4520,0.2965,-0.3458,3.5466,0.3503,-0.3143,1.3145,-0.6370,849.8943,39.2400,25.3200,-26.1000,-142.991,49.545,39.709,49.17437369,-121.67813390,0.00000000,
3.5360,-0.2463,-0.4520,0.2965,-0.3458,3.5466,0.3503,-0.3143,1.3145,-0.6370,850.1448,39.2400,25.3200,-26.1000,-142.991,49.545,39.709,49.17437369,-121.67813390,0.00000000,
3.5390,-0.2463,-0.4520,0.2965,-0.3458,3.5466,0.3503,-0.3143,1.3145,-0.6370,850.1448,39.2400,25.3200,-26.1000,-142.991,49.545,39.709,49.17437369,-121.67813390,0.00000000,
3.5560,-0.2463,-0.4520,0.2965,0.1301,2.8821,-3.1137,-0.3143,1.3145,-0.6370,850.1448,39.2400,25.3200,-26.1000,-142.991,49.545,39.709,49.17437369,-121.67813390,0.00000000,
3.5820,-0.2521,-0.6128,0.6386,0.1301,2.8821,-3.1137,-0.3143,1.3145,-0.6370,850.1448,39.2400,25.3200,-26.1000,-104.324,41.751,21.546,49.17437369,-121.67813390,0.00000000,
3.5890,-0.2521,-0.6128,0.6386,0.1301,2.8821,-3.1137,-0.3143,1.3145,-0.6370,850.1448,38.8800,27.3000,-25.6800,-100.691,41.751,21.546,49.17437369,-121.67813390,0.00000000,
3.5970,-0.2521,-0.6128,0.6386,0.1301,2.8821,-3.1137,-0.1704,2.4256,-1.1441,850.1448,38.8800,27.3000,-25.6800,-100.691,41.751,21.546,49.17437369,-121.67813390,0.00000000,
3.6150,-0.2521,-0.6128,0.6386,0.6158,1.1692,0.3274,-0.1704,2.4256,-1.1441,850.1448,38.8800,27.3000,-25.6800,-100.691,41.751,21.546,49.17437369,-121.67813390,0.00000000,
3.6360,-0.2531,-0.7657,0.2355,0.6158,1.1692,0.3274,-0.1704,2.4256,-1.1441,850.1448,38.8800,27.3000,-25.6800,-165.936,65.703,47.069,49.17437369,-121.67813390,0.00000000,
3.6380,-0.2531,-0.7657,0.2355,0.6158,1.1692,0.3274,-0.1704,2.4256,-1.1441,850.1448,38.3400,29.2200,-25.2000,-165.298,65.703,47.069,49.17437369,-121.67813390,0.00000000,
3.6400,-0.2531,-0.7657,0.2355,0.6158,1.1692,0.3274,1.0173,3.6144,-1.4104,850.1448,38.3400,29.2200,-25.2000,-165.298,65.703,47.069,49.17437369,-121.67813390,0.00000000,
3.6870,-0.2531,-0.7657,0.2355,0.5763,-0.3328,-3.6424,1.0173,3.6144,-1.4104,850.1448,38.3400,29.2200,-25.2000,-165.298,65.703,47.069,49.17437369,-121.67813390,0.00000000,
3.6990,-0.3176,-1.8216,0.5291,0.5763,-0.3328,-3.6424,1.0173,3.6144,-1.4104,850.1448,38.3400,29.2200,-25.2000,-146.241,71.285,30.974,49.17437369,-121.67813390,0.00000000,
3.7030,-0.3176,-1.8216,0.5291,0.5763,-0.3328,-3.6424,1.0173,3.6144,-1.4104,850.1448,37.6200,30.8400,-24.8400,-145.766,71.285,30.974,49.17437369,-121.67813390,0.00000000,
3.7070,-0.3176,-1.8216,0.5291,0.5763,-0.3328,-3.6424,0.7318,-0.9161,-0.2109,850.1448,37.6200,30.8400,-24.8400,-145.766,71.285,30.974,49.17437369,-121.67813390,0.00000000,
3.7160,-0.3176,-1.8216,0.5291,0.5763,-0.3328,-3.6424,0.7318,-0.9161,-0.2109,850.0891,37.6200,30.8400,-24.8400,-145.766,71.285,30.974,49.17437369,-121.67813390,0.00000000,
3.7190,-0.3176,-1.8216,0.5291,0.5763,-0.3328,-3.6424,0.7318,-0.9161,-0.2109,850.0891,37.6200,30.8400,-24.8400,-145.766,71.285,30.974,49.17437369,-121.67813390,0.00000000,
3.7360,-0.3176,-1.8216,0.5291,-0.0996,-10.6980,-0.8077,0.7318,-0.9161,-0.2109,850.0891,37.6200,30.8400,-24.8400,-145.766,71.285,30.974,49.17437369,-121.67813390,0.00000000,
3.7600,-0.3728,-0.8576,0.5130,-0.0996,-10.6980,-0.8077,0.7318,-0.9161,-0.2109,850.0891,37.6200,30.8400,-24.8400,-134.589,53.519,36.008,49.17437369,-121.67813390,0.00000000,
3.7650,-0.3728,-0.8576,0.5130,-0.0996,-10.6980,-0.8077,0.7318,-0.9161,-0.2109,850.0891,36.9000,31.9200,-24.4800,-132.944,53.519,36.008,49.17437369,-121.67813390,0.00000000,
3.7690,-0.3728,-0.8576,0.5130,-0.0996,-10.6980,-0.8077,-0.0096,-0.2684,0.0298,850.0891,36.9000,31.9200,-24.4800,-132.944,53.519,36.008,49.17437369,-121.67813390,0.00000000,
3.7980,-0.3728,-0.8576,0.5130,-0.6473,-1.1064,-0.7929,-0.0096,-0.2684,0.0298,850.0891,36.9000,31.9200,-24.4800,-132.944,53.519,36.008,49.17437369,-121.67813390,0.00000000,
3.8290,-0.3249,-0.8771,0.4773,-0.6473,-1.1064,-0.7929,-0.0096,-0.2684,0.0298,850.0891,36.9000,31.9200,-24.4800,-134.944,56.643,34.245,49.17437369,-121.67813390,0.00000000,
3.8370,-0.3249,-0.8771,0.4773,-0.6473,-1.1064,-0.7929,-0.0096,-0.2684,0.0298,850.0891,36.1800,32.5200,-24.1800,-134.141,56.643,34.245,49.17437369,-121.67813390,0.00000000,
3.8490,-0.3249,-0.8771,0.4773,-0.6473,-1.1064,-0.7929,-0.1097,-0.1023,0.1864,850.0891,36.1800,32.5200,-24.1800,-134.141,56.643,34.245,49.17437369,-121.67813390,0.00000000,
3.8540,-0.3249,-0.8771,0.4773,-0.0868,-1.2291,-1.0063,-0.1097,-0.1023,0.1864,850.0891,36.1800,32.5200,-24.1800,-134.141,56.643,34.245,49.17437369,-121.67813390,0.00000000,
3.8750,-0.3220,-0.8248,0.4651,-0.0868,-1.2291,-1.0063,-0.1097,-0.1023,0.1864,850.0891,36.1800,32.5200,-24.1800,-133.157,55.557,34.696,49.17437369,-121.67813390,0.00000000,
3.8770,-0.3220,-0.8248,0.4651,-0.0868,-1.2291,-1.0063,-0.1097,-0.1023,0.1864,850.0891,35.3400,33.0000,-23.8800,-132.395,55.557,34.696,49.17437369,-121.67813390,0.00000000,
3.8790,-0.3220,-0.8248,0.4651,-0.0868,-1.2291,-1.0063,-0.0288,0.1076,0.2162,850.0891,35.3400,33.0000,-23.8800,-132.395,55.557,34.696,49.17437369,-121.67813390,0.00000000,
3.8940,-0.3220,-0.8248,0.4651,-0.0868,-1.2291,-1.0063,-0.0288,0.1076,0.2162,850.1458,35.3400,33.0000,-23.8800,-132.395,55.557,34.696,49.17437369,-121.67813390,0.00000000,
3.9090,-0.3220,-0.8248,0.4651,-0.0868,-1.2291,-1.0063,-0.0288,0.1076,0.2162,850.1458,35.3400,33.0000,-23.8800,-132.395,55.557,34.696,49.17437369,-121.67813390,0.00000000,
3.9150,-0.3220,-0.8248,0.4651,0.0722,-0.7170,-1.0535,-0.0288,0.1076,0.2162,850.1458,35.3400,33.0000,-23.8800,-132.395,55.557,34.696,49.17437369,-121.67813390,0.00000000,
3.9400,-0.3596,-0.7403,0.4333,0.0722,-0.7170,-1.0535,-0.0288,0.1076,0.2162,850.1458,35.3400,33.0000,-23.8800,-136.551,52.741,39.689,49.17437369,-121.67813390,0.00000000,
3.9450,-0.3596,-0.7403,0.4333,0.0722,-0.7170,-1.0535,-0.0288,0.1076,0.2162,850.1458,34.5000,33.3600,-23.6400,-135.901,52.741,39.689,49.17437369,-121.67813390,0.00000000,
3.9470,-0.3596,-0.7403,0.4333,0.0722,-0.7170,-1.0535,0.0565,0.0639,0.1438,850.1458,34.5000,33.3600,-23.6400,-135.901,52.741,39.689,49.17437369,-121.67813390,0.00000000,
3.9740,-0.3596,-0.7403,0.4333,-0.2739,0.0622,-1.4157,0.0565,0.0639,0.1438,850.1458,34.5000,33.3600,-23.6400,-135.901,52.741,39.689,49.17437369,-121.67813390,0.00000000,
4.0030,-0.3611,-0.7413,0.4529,-0.2739,0.0622,-1.4157,0.0565,0.0639,0.1438,850.1458,34.5000,33.3600,-23.6400,-131.880,51.997,38.565,49.17437369,-121.67813390,0.00000000,
4.0070,-0.3611,-0.7413,0.4529,-0.2739,0.0622,-1.4157,0.0565,0.0639,0.1438,850.1458,33.5400,33.4800,-23.5800,-132.037,51.997,38.565,49.17437369,-121.67813390,0.00000000,
4.0090,-0.3611,-0.7413,0.4529,-0.2739,0.0622,-1.4157,0.5326,-0.2972,0.0213,850.1458,33.5400,33.4800,-23.5800,-132.037,51.997,38.565,49.17437369,-121.67813390,0.00000000,
4.0340,-0.3611,-0.7413,0.4529,-0.4543,0.0141,-1.3650,0.5326,-0.2972,0.0213,850.1458,33.5400,33.4800,-23.5800,-132.037,51.997,38.565,49.17437369,-121.67813390,0.00000000,
4.0580,-0.2985,-0.7760,0.5149,-0.4543,0.0141,-1.3650,0.5326,-0.2972,0.0213,850.1458,33.5400,33.4800,-23.5800,-118.046,52.510,30.104,49.17437369,-121.67813390,0.00000000,
4.0660,-0.2985,-0.7760,0.5149,-0.4543,0.0141,-1.3650,0.5326,-0.2972,0.0213,850.1458,32.4600,33.4200,-23.7000,-118.645,52.510,30.104,49.17437369,-121.67813390,0.00000000,
4.0690,-0.2985,-0.7760,0.5149,-0.4543,0.0141,-1.3650,-0.1566,-0.2035,-0.2866,850.1458,32.4600,33.4200,-23.7000,-118.645,52.510,30.104,49.17437369,-121.67813390,0.00000000,
4.0760,-0.2985,-0.7760,0.5149,-0.4543,0.0141,-1.3650,-0.1566,-0.2035,-0.2866,850.1045,32.4600,33.4200,-23.7000,-118.645,52.510,30.104,49.17437369,-121.67813390,0.00000000,
4.0790,-0.2985,-0.7760,0.5149,-0.4543,0.0141,-1.3650,-0.1566,-0.2035,-0.2866,850.1045,32.4600,33.4200,-23.7000,-118.645,52.510,30.104,49.17437369,-121.67813390,0.00000000,
4.0920,-0.2985,-0.7760,0.5149,-0.0597,-0.1249,-0.6114,-0.1566,-0.2035,-0.2866,850.1045,32.4600,33.4200,-23.7000,-118.645,52.510,30.104,49.17437369,-121.67813390,0.00000000,
4.1140,-0.2736,-0.8239,0.4509,-0.0597,-0.1249,-0.6114,-0.1566,-0.2035,-0.2866,850.1045,32.4600,33.4200,-23.7000,-130.555,57.372,31.249,49.17437369,-121.67813390,0.00000000,
4.1160,-0.2736,-0.8239,0.4509,-0.0597,-0.1249,-0.6114,-0.1566,-0.2035,-0.2866,850.1045,31.3800,33.0000,-23.8200,-132.083,57.372,31.249,49.17437369,-121.67813390,0.00000000,
4.1170,-0.2736,-0.8239,0.4509,-0.0597,-0.1249,-0.6114,0.0032,0.0128,-0.2887,850.1045,31.3800,33.0000,-23.8200,-132.083,57.372,31.249,49.17437369,-121.67813390,0.00000000,
4.1570,-0.2736,-0.8239,0.4509,0.1658,-0.5756,-1.2236,0.0032,0.0128,-0.2887,850.1045,31.3800,33.0000,-23.8200,-132.083,57.372,31.249,49.17437369,-121.67813390,0.00000000,
4.1840,-0.3601,-0.7906,0.4729,0.1658,-0.5756,-1.2236,0.0032,0.0128,-0.2887,850.1045,31.3800,33.0000,-23.8200,-134.938,53.064,37.288,49.17437369,-121.67813390,0.00000000,
4.1890,-0.3601,-0.7906,0.4729,0.1658,-0.5756,-1.2236,0.0032,0.0128,-0.2887,850.1045,30.3000,32.4600,-24.0600,-137.679,53.064,37.288,49.17437369,-121.67813390,0.00000000,
4.1940,-0.3601,-0.7906,0.4729,0.1658,-0.5756,-1.2236,0.1012,0.1417,0.0192,850.1045,30.3000,32.4600,-24.0600,-137.679,53.064,37.288,49.17437369,-121.67813390,0.00000000,
4.2150,-0.3601,-0.7906,0.4729,-0.5626,-0.1388,-0.7938,0.1012,0.1417,0.0192,850.1045,30.3000,32.4600,-24.0600,-137.679,53.064,37.288,49.17437369,-121.67813390,0.00000000,
4.2380,-0.3699,-0.7672,0.4456,-0.5626,-0.1388,-0.7938,0.1012,0.1417,0.0192,850.1045,30.3000,32.4600,-24.0600,-143.320,52.954,39.698,49.17437369,-121.67813390,0.00000000,
4.2440,-0.3699,-0.7672,0.4456,-0.5626,-0.1388,-0.7938,0.1012,0.1417,0.0192,850.1045,29.1000,31.7400,-24.3600,-147.383,52.954,39.698,49.17437369,-121.67813390,0.00000000,
4.2470,-0.3699,-0.7672,0.4456,-0.5626,-0.1388,-0.7938,-0.3675,0.0458,0.0181,850.1045,29.1000,31.7400,-24.3600,-147.383,52.954,39.698,49.17437369,-121.67813390,0.00000000,
4.2540,-0.3699,-0.7672,0.4456,-0.5626,-0.1388,-0.7938,-0.3675,0.0458,0.0181,849.9985,29.1000,31.7400,-24.3600,-147.383,52.954,39.698,49.17437369,-121.67813390,0.00000000,
4.2570,-0.3699,-0.7672,0.4456,-0.5626,-0.1388,-0.7938,-0.3675,0.0458,0.0181,849.9985,29.1000,31.7400,-24.3600,-147.383,52.954,39.698,49.17437369,-121.67813390,0.00000000,
4.2740,-0.3699,-0.7672,0.4456,-0.6091,0.2629,-0.7840,-0.3675,0.0458,0.0181,849.9985,29.1000,31.7400,-24.3600,-147.383,52.954,39.698,49.17437369,-121.67813390,0.00000000,
4.2980,-0.3293,-0.7794,0.4074,-0.6091,0.2629,-0.7840,-0.3675,0.0458,0.0181,849.9985,29.1000,31.7400,-24.3600,-150.991,56.092,38.948,49.17437369,-121.67813390,0.00000000,
4.3010,-0.3293,-0.7794,0.4074,-0.6091,0.2629,-0.7840,-0.3675,0.0458,0.0181,849.9985,27.9000,30.9600,-24.6600,-154.854,56.092,38.948,49.17437369,-121.67813390,0.00000000,
4.3050,-0.3293,-0.7794,0.4074,-0.6091,0.2629,-0.7840,-0.5987,-0.1182,0.0618,849.9985,27.9000,30.9600,-24.6600,-154.854,56.092,38.948,49.17437369,-121.67813390,0.00000000,
4.3360,-0.3293,-0.7794,0.4074,-0.2445,0.3100,-0.9164,-0.5987,-0.1182,0.0618,849.9985,27.9000,30.9600,-24.6600,-154.854,56.092,38.948,49.17437369,-121.67813390,0.00000000,
4.3630,-0.2893,-0.9069,0.4211,-0.2445,0.3100,-0.9164,-0.5987,-0.1182,0.0618,849.9985,27.9000,30.9600,-24.6600,-150.966,60.606,34.484,49.17437369,-121.67813390,0.00000000,
4.3700,-0.2893,-0.9069,0.4211,-0.2445,0.3100,-0.9164,-0.5987,-0.1182,0.0618,849.9985,26.7600,30.1800,-25.0200,-154.243,60.606,34.484,49.17437369,-121.67813390,0.00000000,
4.3790,-0.2893,-0.9069,0.4211,-0.2445,0.3100,-0.9164,-0.3036,-0.1129,0.0330,849.9985,26.7600,30.1800,-25.0200,-154.243,60.606,34.484,49.17437369,-121.67813390,0.00000000,
4.3920,-0.2893,-0.9069,0.4211,0.1061,-0.8064,-0.5860,-0.3036,-0.1129,0.0330,849.9985,26.7600,30.1800,-25.0200,-154.243,60.606,34.484,49.17437369,-121.67813390,0.00000000,
4.4140,-0.2482,-0.9748,0.3913,0.1061,-0.8064,-0.5860,-0.3036,-0.1129,0.0330,849.9985,26.7600,30.1800,-25.0200,-154.257,64.575,32.387,49.17437369,-121.67813390,0.00000000,
4.4160,-0.2482,-0.9748,0.3913,0.1061,-0.8064,-0.5860,-0.3036,-0.1129,0.0330,849.9985,25.5600,29.2800,-25.3200,-157.224,64.575,32.387,49.17437369,-121.67813390,0.00000000,
4.4170,-0.2482,-0.9748,0.3913,0.1061,-0.8064,-0.5860,-0.2993,0.1129,0.0447,849.9985,25.5600,29.2800,-25.3200,-157.224,64.575,32.387,49.17437369,-121.67813390,0.00000000,
4.4330,-0.2482,-0.9748,0.3913,0.1061,-0.8064,-0.5860,-0.2993,0.1129,0.0447,850.1726,25.5600,29.2800,-25.3200,-157.224,64.575,32.387,49.17437369,-121.67813390,0.00000000,
4.4340,-0.2482,-0.9748,0.3913,0.1061,-0.8064,-0.5860,-0.2993,0.1129,0.0447,850.1726,25.5600,29.2800,-25.3200,-157.224,64.575,32.387,49.17437369,-121.67813390,0.00000000,
4.4550,-0.2482,-0.9748,0.3913,0.5688,-1.4473,-0.7967,-0.2993,0.1129,0.0447,850.1726,25.5600,29.2800,-25.3200,-157.224,64.575,32.387,49.17437369,-121.67813390,0.00000000,
4.4790,-0.3899,-0.7657,0.3855,0.5688,-1.4473,-0.7967,-0.2993,0.1129,0.0447,850.1726,25.5600,29.2800,-25.3200,179.826,54.396,45.329,49.17437369,-121.67813390,0.00000000,
4.4840,-0.3899,-0.7657,0.3855,0.5688,-1.4473,-0.7967,-0.2993,0.1129,0.0447,850.1726,24.4200,28.3800,-25.6200,175.089,54.396,45.329,49.17437369,-121.67813390,0.00000000,
4.4880,-0.3899,-0.7657,0.3855,0.5688,-1.4473,-0.7967,0.0980,0.2471,0.1694,850.1726,24.4200,28.3800,-25.6200,175.089,54.396,45.329,49.17437369,-121.67813390,0.00000000,
4.5160,-0.3899,-0.7657,0.3855,-0.8276,0.5246,-0.9923,0.0980,0.2471,0.1694,850.1726,24.4200,28.3800,-25.6200,175.089,54.396,45.329,49.17437369,-121.67813390,0.00000000,
4.5420,-0.3029,-0.8649,0.4333,-0.8276,0.5246,-0.9923,0.0980,0.2471,0.1694,850.1726,24.4200,28.3800,-25.6200,-160.482,58.562,34.957,49.17437369,-121.67813390,0.00000000,
4.5480,-0.3029,-0.8649,0.4333,-0.8276,0.5246,-0.9923,0.0980,0.2471,0.1694,850.1726,23.2200,27.4800,-25.9200,-164.570,58.562,34.957,49.17437369,-121.67813390,0.00000000,
4.5590,-0.3029,-0.8649,0.4333,-0.8276,0.5246,-0.9923,0.1193,0.0288,-0.0778,850.1726,23.2200,27.4800,-25.9200,-164.570,58.562,34.957,49.17437369,-121.67813390,0.00000000,
4.5720,-0.3029,-0.8649,0.4333,0.1087,-0.3275,-0.2588,0.1193,0.0288,-0.0778,850.1726,23.2200,27.4800,-25.9200,-164.570,58.562,34.957,49.17437369,-121.67813390,0.00000000,
4.5930,-0.3611,-0.8962,0.3859,0.1087,-0.3275,-0.2588,0.1193,0.0288,-0.0778,850.1726,23.2200,27.4800,-25.9200,177.309,59.470,43.094,49.17437369,-121.67813390,0.00000000,
4.5950,-0.3611,-0.8962,0.3859,0.1087,-0.3275,-0.2588,0.1193,0.0288,-0.0778,850.1726,22.4400,26.4000,-26.1600,174.775,59.470,43.094,49.17437369,-121.67813390,0.00000000,
4.5970,-0.3611,-0.8962,0.3859,0.1087,-0.3275,-0.2588,-0.4932,-0.1214,0.1385,850.1726,22.4400,26.4000,-26.1600,174.775,59.470,43.094,49.17437369,-121.67813390,0.00000000,
4.6130,-0.3611,-0.8962,0.3859,0.1087,-0.3275,-0.2588,-0.4932,-0.1214,0.1385,850.1748,22.4400,26.4000,-26.1600,174.775,59.470,43.094,49.17437369,-121.67813390,0.00000000,
4.6160,-0.3611,-0.8962,0.3859,0.1087,-0.3275,-0.2588,-0.4932,-0.1214,0.1385,850.1748,22.4400,26.4000,-26.1600,174.775,59.470,43.094,49.17437369,-121.67813390,0.00000000,
4.6350,-0.3611,-0.8962,0.3859,-0.5818,-0.5403,-0.6328,-0.4932,-0.1214,0.1385,850.1748,22.4400,26.4000,-26.1600,174.775,59.470,43.094,49.17437369,-121.67813390,0.00000000,
4.6570,-0.2678,-0.9167,0.4470,-0.5818,-0.5403,-0.6328,-0.4932,-0.1214,0.1385,850.1748,22.4400,26.4000,-26.1600,-160.595,60.385,30.921,49.17437369,-121.67813390,0.00000000,
4.6620,-0.2678,-0.9167,0.4470,-0.5818,-0.5403,-0.6328,-0.4932,-0.1214,0.1385,850.1748,22.0800,25.6200,-26.2200,-161.927,60.385,30.921,49.17437369,-121.67813390,0.00000000,
4.6660,-0.2678,-0.9167,0.4470,-0.5818,-0.5403,-0.6328,-0.2503,0.0298,-0.0586,850.1748,22.0800,25.6200,-26.2200,-161.927,60.385,30.921,49.17437369,-121.67813390,0.00000000,
4.6950,-0.2678,-0.9167,0.4470,0.3228,-0.6653,0.1038,-0.2503,0.0298,-0.0586,850.1748,22.0800,25.6200,-26.2200,-161.927,60.385,30.921,49.17437369,-121.67813390,0.00000000,
4.7190,-0.3660,-0.8092,0.4182,0.3228,-0.6653,0.1038,-0.2503,0.0298,-0.0586,850.1748,22.0800,25.6200,-26.2200,177.287,55.521,41.190,49.17437369,-121.67813390,0.00000000,
4.7270,-0.3660,-0.8092,0.4182,0.3228,-0.6653,0.1038,-0.2503,0.0298,-0.0586,850.1748,21.9600,25.2600,-26.2200,176.942,55.521,41.190,49.17437369,-121.67813390,0.00000000,
4.7310,-0.3660,-0.8092,0.4182,0.3228,-0.6653,0.1038,-0.1087,0.2663,-0.0096,850.1748,21.9600,25.2600,-26.2200,176.942,55.521,41.190,49.17437369,-121.67813390,0.00000000,
4.7530,-0.3660,-0.8092,0.4182,-0.5081,0.4464,0.0330,-0.1087,0.2663,-0.0096,850.1748,21.9600,25.2600,-26.2200,176.942,55.521,41.190,49.17437369,-121.67813390,0.00000000,
4.7760,-0.4476,-0.8395,0.4802,-0.5081,0.4464,0.0330,-0.1087,0.2663,-0.0096,850.1748,21.9600,25.2600,-26.2200,170.928,51.975,42.983,49.17437369,-121.67813390,0.00000000,
4.7790,-0.4476,-0.8395,0.4802,-0.5081,0.4464,0.0330,-0.1087,0.2663,-0.0096,850.1748,21.8400,25.2000,-26.1000,170.822,51.975,42.983,49.17437369,-121.67813390,0.00000000,
4.7850,-0.4476,-0.8395,0.4802,-0.5081,0.4464,0.0330,-0.4005,-0.1555,0.0149,850.1748,21.8400,25.2000,-26.1000,170.822,51.975,42.983,49.17437369,-121.67813390,0.00000000,
4.7930,-0.4476,-0.8395,0.4802,-0.5081,0.4464,0.0330,-0.4005,-0.1555,0.0149,850.1604,21.8400,25.2000,-26.1000,170.822,51.975,42.983,49.17437369,-121.67813390,0.00000000,
4.7960,-0.4476,-0.8395,0.4802,-0.5081,0.4464,0.0330,-0.4005,-0.1555,0.0149,850.1604,21.8400,25.2000,-26.1000,170.822,51.975,42.983,49.17437369,-121.67813390,0.00000000,
4.8120,-0.4476,-0.8395,0.4802,-1.4415,0.3229,0.9120,-0.4005,-0.1555,0.0149,850.1604,21.8400,25.2000,-26.1000,170.822,51.975,42.983,49.17437369,-121.67813390,0.00000000,
4.8350,-0.2634,-1.0183,0.3532,-1.4415,0.3229,0.9120,-0.4005,-0.1555,0.0149,850.1604,21.8400,25.2000,-26.1000,-174.854,66.604,36.709,49.17437369,-121.67813390,0.00000000,
4.8380,-0.2634,-1.0183,0.3532,-1.4415,0.3229,0.9120,-0.4005,-0.1555,0.0149,850.1604,21.7800,25.1400,-25.9200,-174.659,66.604,36.709,49.17437369,-121.67813390,0.00000000,
4.8420,-0.2634,-1.0183,0.3532,-1.4415,0.3229,0.9120,0.0085,-0.2876,-0.0863,850.1604,21.7800,25.1400,-25.9200,-174.659,66.604,36.709,49.17437369,-121.67813390,0.00000000,
4.8720,-0.2634,-1.0183,0.3532,0.2782,-1.4179,-0.3716,0.0085,-0.2876,-0.0863,850.1604,21.7800,25.1400,-25.9200,-174.659,66.604,36.709,49.17437369,-121.67813390,0.00000000,
4.8950,-0.2551,-0.7828,0.3684,0.2782,-1.4179,-0.3716,0.0085,-0.2876,-0.0863,850.1604,21.7800,25.1400,-25.9200,-169.358,60.216,34.700,49.17437369,-121.67813390,0.00000000,
4.8970,-0.2551,-0.7828,0.3684,0.2782,-1.4179,-0.3716,0.0085,-0.2876,-0.0863,850.1604,21.7200,25.1400,-25.7400,-169.082,60.216,34.700,49.17437369,-121.67813390,0.00000000,
4.9010,-0.2551,-0.7828,0.3684,0.2782,-1.4179,-0.3716,-0.0714,-0.0426,-0.1822,850.1604,21.7200,25.1400,-25.7400,-169.082,60.216,34.700,49.17437369,-121.67813390,0.00000000,
4.9340,-0.2551,-0.7828,0.3684,0.2582,0.8737,-0.3326,-0.0714,-0.0426,-0.1822,850.1604,21.7200,25.1400,-25.7400,-169.082,60.216,34.700,49.17437369,-121.67813390,0.00000000,
4.9580,-0.2780,-0.8986,0.2789,0.2582,0.8737,-0.3326,-0.0714,-0.0426,-0.1822,850.1604,21.7200,25.1400,-25.7400,172.313,66.334,44.906,49.17437369,-121.67813390,0.00000000,
4.9640,-0.2780,-0.8986,0.2789,0.2582,0.8737,-0.3326,-0.0714,-0.0426,-0.1822,850.1604,21.6000,25.2000,-25.4400,172.553,66.334,44.906,49.17437369,-121.67813390,0.00000000,
4.9700,-0.2780,-0.8986,0.2789,0.2582,0.8737,-0.3326,-0.0085,-0.0192,-0.3025,850.1604,21.6000,25.2000,-25.4400,172.553,66.334,44.906,49.17437369,-121.67813390,0.00000000,
4.9740,-0.2780,-0.8986,0.2789,0.2582,0.8737,-0.3326,-0.0085,-0.0192,-0.3025,850.1436,21.6000,25.2000,-25.4400,172.553,66.334,44.906,49.17437369,-121.67813390,0.00000000,
4.9780,-0.2780,-0.8986,0.2789,0.2582,0.8737,-0.3326,-0.0085,-0.0192,-0.3025,850.1436,21.6000,25.2000,-25.4400,172.553,66.334,44.906,49.17437369,-121.67813390,0.00000000,
4.9910,-0.2780,-0.8986,0.2789,0.0540,-0.1853,-1.0249,-0.0085,-0.0192,-0.3025,850.1436,21.6000,25.2000,-25.4400,172.553,66.334,44.906,49.17437369,-121.67813390,0.00000000,
5.0140,-0.4085,-0.9279,0.2218,0.0540,-0.1853,-1.0249,-0.0085,-0.0192,-0.3025,850.1436,21.6000,25.2000,-25.4400,143.921,63.394,61.502,49.17437369,-121.67813390,0.00000000,
5.0160,-0.4085,-0.9279,0.2218,0.0540,-0.1853,-1.0249,-0.0085,-0.0192,-0.3025,850.1436,21.5400,25.3200,-25.2000,144.000,63.394,61.502,49.17437369,-121.67813390,0.00000000,
5.0180,-0.4085,-0.9279,0.2218,0.0540,-0.1853,-1.0249,-0.3356,-0.1193,-0.0884,850.1436,21.5400,25.3200,-25.2000,144.000,63.394,61.502,49.17437369,-121.67813390,0.00000000,
5.0510,-0.4085,-0.9279,0.2218,-1.2980,-0.3405,-1.3241,-0.3356,-0.1193,-0.0884,850.1436,21.5400,25.3200,-25.2000,144.000,63.394,61.502,49.17437369,-121.67813390,0.00000000,
5.0720,-0.2072,-0.8913,0.3278,-1.2980,-0.3405,-1.3241,-0.3356,-0.1193,-0.0884,850.1436,21.5400,25.3200,-25.2000,-166.643,66.487,32.293,49.17437369,-121.67813390,0.00000000,
5.0830,-0.2072,-0.8913,0.3278,-1.2980,-0.3405,-1.3241,-0.3356,-0.1193,-0.0884,850.1436,21.4200,25.5600,-24.9600,-166.346,66.487,32.293,49.17437369,-121.67813390,0.00000000,
5.0850,-0.2072,-0.8913,0.3278,-1.2980,-0.3405,-1.3241,-0.3856,-0.1182,0.0639,850.1436,21.4200,25.5600,-24.9600,-166.346,66.487,32.293,49.17437369,-121.67813390,0.00000000,
5.1100,-0.2072,-0.8913,0.3278,0.6965,0.0722,-0.1304,-0.3856,-0.1182,0.0639,850.1436,21.4200,25.5600,-24.9600,-166.346,66.487,32.293,49.17437369,-121.67813390,0.00000000,
5.1330,-0.2487,-0.8058,0.3703,0.6965,0.0722,-0.1304,-0.3856,-0.1182,0.0639,850.1436,21.4200,25.5600,-24.9600,-166.577,61.032,33.886,49.17438493,-121.67813894,0.00000000,
5.1340,-0.2487,-0.8058,0.3703,0.6965,0.0722,-0.1304,-0.3856,-0.1182,0.0639,850.1436,21.3000,25.9200,-24.6600,-165.975,61.032,33.886,49.17438493,-121.67813894,0.00000000,
5.1360,-0.2487,-0.8058,0.3703,0.6965,0.0722,-0.1304,-0.1427,0.1928,0.1193,850.1436,21.3000,25.9200,-24.6600,-165.975,61.032,33.886,49.17438493,-121.67813894,0.00000000,
5.1500,-0.2487,-0.8058,0.3703,0.6965,0.0722,-0.1304,-0.1427,0.1928,0.1193,850.1189,21.3000,25.9200,-24.6600,-165.975,61.032,33.886,49.17438493,-121.67813894,0.00000000,
5.1510,-0.2487,-0.8058,0.3703,0.6965,0.0722,-0.1304,-0.1427,0.1928,0.1193,850.1189,21.3000,25.9200,-24.6600,-165.975,61.032,33.886,49.17438493,-121.67813894,0.00000000,
5.1730,-0.2487,-0.8058,0.3703,0.3039,0.9692,0.4586,-0.1427,0.1928,0.1193,850.1189,21.3000,25.9200,-24.6600,-165.975,61.032,33.886,49.17438493,-121.67813894,0.00000000,
5.1980,-0.2292,-1.0051,0.2633,0.3039,0.9692,0.4586,-0.1427,0.1928,0.1193,850.1189,21.3000,25.9200,-24.6600,179.685,70.849,41.034,49.17438493,-121.67813894,0.00000000,
5.2060,-0.2292,-1.0051,0.2633,0.3039,0.9692,0.4586,-0.1427,0.1928,0.1193,850.1189,21.1800,26.2800,-24.3000,-179.939,70.849,41.034,49.17438493,-121.67813894,0.00000000,
5.2100,-0.2292,-1.0051,0.2633,0.3039,0.9692,0.4586,-0.3132,0.2035,0.0000,850.1189,21.1800,26.2800,-24.3000,-179.939,70.849,41.034,49.17438493,-121.67813894,0.00000000,
5.2340,-0.2292,-1.0051,0.2633,0.5077,-0.8720,-0.2441,-0.3132,0.2035,0.0000,850.1189,21.1800,26.2800,-24.3000,-179.939,70.849,41.034,49.17438493,-121.67813894,0.00000000,
5.2670,-0.2106,-1.0481,0.2203,0.5077,-0.8720,-0.2441,-0.3132,0.2035,0.0000,850.1189,21.1800,26.2800,-24.3000,176.406,73.787,43.709,49.17438493,-121.67813894,0.00000000,
5.2710,-0.2106,-1.0481,0.2203,0.5077,-0.8720,-0.2441,-0.3132,0.2035,0.0000,850.1189,21.0600,26.7000,-23.9400,176.737,73.787,43.709,49.17438493,-121.67813894,0.00000000,
5.2770,-0.2106,-1.0481,0.2203,0.5077,-0.8720,-0.2441,-0.4069,0.2322,-0.0533,850.1189,21.0600,26.7000,-23.9400,176.737,73.787,43.709,49.17438493,-121.67813894,0.00000000,
5.2900,-0.2106,-1.0481,0.2203,0.6114,-1.2359,-0.5554,-0.4069,0.2322,-0.0533,850.1189,21.0600,26.7000,-23.9400,176.737,73.787,43.709,49.17438493,-121.67813894,0.00000000,
5.3120,-0.2233,-0.9367,0.2672,0.6114,-1.2359,-0.5554,-0.4069,0.2322,-0.0533,850.1189,21.0600,26.7000,-23.9400,-177.748,69.608,39.884,49.17438493,-121.67813894,0.00000000,
5.3140,-0.2233,-0.9367,0.2672,0.6114,-1.2359,-0.5554,-0.4069,0.2322,-0.0533,850.1189,20.9400,27.1800,-23.5800,-177.297,69.608,39.884,49.17438493,-121.67813894,0.00000000,
5.3180,-0.2233,-0.9367,0.2672,0.6114,-1.2359,-0.5554,-0.0618,0.3675,-0.1779,850.1189,20.9400,27.1800,-23.5800,-177.297,69.608,39.884,49.17438493,-121.67813894,0.00000000,
5.3320,-0.2233,-0.9367,0.2672,0.6114,-1.2359,-0.5554,-0.0618,0.3675,-0.1779,850.0188,20.9400,27.1800,-23.5800,-177.297,69.608,39.884,49.17438493,-121.67813894,0.00000000,
5.3350,-0.2233,-0.9367,0.2672,0.6114,-1.2359,-0.5554,-0.0618,0.3675,-0.1779,850.0188,20.9400,27.1800,-23.5800,-177.297,69.608,39.884,49.17438493,-121.67813894,0.00000000,
5.3530,-0.2233,-0.9367,0.2672,0.4450,-0.1594,-0.1857,-0.0618,0.3675,-0.1779,850.0188,20.9400,27.1800,-23.5800,-177.297,69.608,39.884,49.17438493,-121.67813894,0.00000000,
5.3750,-0.3176,-0.8468,0.3356,0.4450,-0.1594,-0.1857,-0.0618,0.3675,-0.1779,850.0188,20.9400,27.1800,-23.5800,176.103,61.381,43.420,49.17438493,-121.67813894,0.00000000,
5.3790,-0.3176,-0.8468,0.3356,0.4450,-0.1594,-0.1857,-0.0618,0.3675,-0.1779,850.0188,20.8200,27.6600,-23.1600,176.762,61.381,43.420,49.17438493,-121.67813894,0.00000000,
5.3840,-0.3176,-0.8468,0.3356,0.4450,-0.1594,-0.1857,0.2248,0.1960,-0.0735,850.0188,20.8200,27.6600,-23.1600,176.762,61.381,43.420,49.17438493,-121.67813894,0.00000000,
5.4130,-0.3176,-0.8468,0.3356,-0.4037,0.6755,0.4092,0.2248,0.1960,-0.0735,850.0188,20.8200,27.6600,-23.1600,176.762,61.381,43.420,49.17438493,-121.67813894,0.00000000,
5.4370,-0.4192,-0.9025,0.4153,-0.4037,0.6755,0.4092,0.2248,0.1960,-0.0735,850.0188,20.8200,27.6600,-23.1600,170.598,56.823,45.273,49.17438493,-121.67813894,0.00000000,
5.4430,-0.4192,-0.9025,0.4153,-0.4037,0.6755,0.4092,0.2248,0.1960,-0.0735,850.0188,20.7000,28.1400,-22.7400,171.236,56.823,45.273,49.17438493,-121.67813894,0.00000000,
5.4480,-0.4192,-0.9025,0.4153,-0.4037,0.6755,0.4092,0.2258,-0.2834,-0.1353,850.0188,20.7000,28.1400,-22.7400,171.236,56.823,45.273,49.17438493,-121.67813894,0.00000000,
5.4730,-0.4192,-0.9025,0.4153,-1.4490,0.1253,1.1310,0.2258,-0.2834,-0.1353,850.0188,20.7000,28.1400,-22.7400,171.236,56.823,45.273,49.17438493,-121.67813894,0.00000000,
5.5060,-0.4412,-0.9582,0.2267,-1.4490,0.1253,1.1310,0.2258,-0.2834,-0.1353,850.0188,20.7000,28.1400,-22.7400,139.578,62.632,62.810,49.17438493,-121.67813894,0.00000000,
5.5120,-0.4412,-0.9582,0.2267,-1.4490,0.1253,1.1310,0.2258,-0.2834,-0.1353,850.0188,20.5800,28.6200,-22.2600,139.408,62.632,62.810,49.17438493,-121.67813894,0.00000000,
5.5170,-0.4412,-0.9582,0.2267,-1.4490,0.1253,1.1310,-0.1609,-0.2461,-0.2184,850.0188,20.5800,28.6200,-22.2600,139.408,62.632,62.810,49.17438493,-121.67813894,0.00000000,
5.5220,-0.4412,-0.9582,0.2267,-1.4490,0.1253,1.1310,-0.1609,-0.2461,-0.2184,850.0679,20.5800,28.6200,-22.2600,139.408,62.632,62.810,49.17438493,-121.67813894,0.00000000,
5.5270,-0.4412,-0.9582,0.2267,-1.4490,0.1253,1.1310,-0.1609,-0.2461,-0.2184,850.0679,20.5800,28.6200,-22.2600,139.408,62.632,62.810,49.17438493,-121.67813894,0.00000000,
5.5340,-0.4412,-0.9582,0.2267,-1.7286,-0.4108,-0.7448,-0.1609,-0.2461,-0.2184,850.0679,20.5800,28.6200,-22.2600,139.408,62.632,62.810,49.17438493,-121.67813894,0.00000000,
5.5540,-0.3327,-0.9729,0.3400,-1.7286,-0.4108,-0.7448,-0.1609,-0.2461,-0.2184,850.0679,20.5800,28.6200,-22.2600,176.638,63.941,44.381,49.17438493,-121.67813894,0.00000000,
5.5570,-0.3327,-0.9729,0.3400,-1.7286,-0.4108,-0.7448,-0.1609,-0.2461,-0.2184,850.0679,20.5200,29.1600,-21.7800,177.689,63.941,44.381,49.17438493,-121.67813894,0.00000000,
5.5630,-0.3327,-0.9729,0.3400,-1.7286,-0.4108,-0.7448,-0.0117,-0.2716,0.0341,850.0679,20.5200,29.1600,-21.7800,177.689,63.941,44.381,49.17438493,-121.67813894,0.00000000,
5.5910,-0.3327,-0.9729,0.3400,-0.6163,-0.5924,0.2959,-0.0117,-0.2716,0.0341,850.0679,20.5200,29.1600,-21.7800,177.689,63.941,44.381,49.17438493,-121.67813894,0.00000000,
5.6130,-0.2267,-0.9406,0.3713,-0.6163,-0.5924,0.2959,-0.0117,-0.2716,0.0341,850.0679,20.5200,29.1600,-21.7800,-156.741,65.180,31.409,49.17438493,-121.67813894,0.00000000,
5.6160,-0.2267,-0.9406,0.3713,-0.6163,-0.5924,0.2959,-0.0117,-0.2716,0.0341,850.0679,20.3400,29.5800,-21.2400,-155.271,65.180,31.409,49.17438493,-121.67813894,0.00000000,
5.6190,-0.2267,-0.9406,0.3713,-0.6163,-0.5924,0.2959,0.1332,-0.1481,0.1598,850.0679,20.3400,29.5800,-21.2400,-155.271,65.180,31.409,49.17438493,-121.67813894,0.00000000,
5.6520,-0.2267,-0.9406,0.3713,0.4585,-0.3187,0.5108,0.1332,-0.1481,0.1598,850.0679,20.3400,29.5800,-21.2400,-155.271,65.180,31.409,49.17438493,-121.67813894,0.00000000,
5.6730,-0.2761,-0.8947,0.2574,0.4585,-0.3187,0.5108,0.1332,-0.1481,0.1598,850.0679,20.3400,29.5800,-21.2400,173.901,67.125,47.000,49.17438493,-121.67813894,0.00000000,
5.6760,-0.2761,-0.8947,0.2574,0.4585,-0.3187,0.5108,0.1332,-0.1481,0.1598,850.0679,20.2200,30.0000,-20.7600,174.698,67.125,47.000,49.17438493,-121.67813894,0.00000000,
5.6790,-0.2761,-0.8947,0.2574,0.4585,-0.3187,0.5108,0.2397,-0.2162,0.2162,850.0679,20.2200,30.0000,-20.7600,174.698,67.125,47.000,49.17438493,-121.67813894,0.00000000,
5.6900,-0.2761,-0.8947,0.2574,0.4585,-0.3187,0.5108,0.2397,-0.2162,0.2162,850.1956,20.2200,30.0000,-20.7600,174.698,67.125,47.000,49.17438493,-121.67813894,0.00000000,
5.6920,-0.2761,-0.8947,0.2574,0.4585,-0.3187,0.5108,0.2397,-0.2162,0.2162,850.1956,20.2200,30.0000,-20.7600,174.698,67.125,47.000,49.17438493,-121.67813894,0.00000000,
5.7100,-0.2761,-0.8947,0.2574,-0.0218,0.1055,-0.6750,0.2397,-0.2162,0.2162,850.1956,20.2200,30.0000,-20.7600,174.698,67.125,47.000,49.17438493,-121.67813894,0.00000000,
5.7360,-0.2096,-0.9573,0.3229,-0.0218,0.1055,-0.6750,0.2397,-0.2162,0.2162,850.1956,20.2200,30.0000,-20.7600,-159.558,68.091,32.989,49.17438493,-121.67813894,0.00000000,
5.7460,-0.2096,-0.9573,0.3229,-0.0218,0.1055,-0.6750,0.2397,-0.2162,0.2162,850.1956,20.1000,30.4200,-20.3400,-158.429,68.091,32.989,49.17438493,-121.67813894,0.00000000,
5.7490,-0.2096,-0.9573,0.3229,-0.0218,0.1055,-0.6750,0.2333,-0.2354,0.1822,850.1956,20.1000,30.4200,-20.3400,-158.429,68.091,32.989,49.17438493,-121.67813894,0.00000000,
5.7750,-0.2096,-0.9573,0.3229,0.5801,-0.5294,-0.1336,0.2333,-0.2354,0.1822,850.1956,20.1000,30.4200,-20.3400,-158.429,68.091,32.989,49.17438493,-121.67813894,0.00000000,
5.7940,-0.2629,-0.9323,0.2648,0.5801,-0.5294,-0.1336,0.2333,-0.2354,0.1822,850.1956,20.1000,30.4200,-20.3400,179.748,68.190,44.794,49.17438493,-121.67813894,0.00000000,
5.7970,-0.2629,-0.9323,0.2648,0.5801,-0.5294,-0.1336,0.2333,-0.2354,0.1822,850.1956,19.9200,30.7200,-20.0400,-179.936,68.190,44.794,49.17438493,-121.67813894,0.00000000,
5.8040,-0.2629,-0.9323,0.2648,0.5801,-0.5294,-0.1336,0.2610,-0.0788,0.0469,850.1956,19.9200,30.7200,-20.0400,-179.936,68.190,44.794,49.17438493,-121.67813894,0.00000000,
5.8300,-0.2629,-0.9323,0.2648,-0.0161,-0.3062,-0.8164,0.2610,-0.0788,0.0469,850.1956,19.9200,30.7200,-20.0400,-179.936,68.190,44.794,49.17438493,-121.67813894,0.00000000,
5.8540,-0.2370,-0.8278,0.3302,-0.0161,-0.3062,-0.8164,0.2610,-0.0788,0.0469,850.1956,19.9200,30.7200,-20.0400,-158.625,63.847,35.663,49.17438493,-121.67813894,0.00000000,
5.8570,-0.2370,-0.8278,0.3302,-0.0161,-0.3062,-0.8164,0.2610,-0.0788,0.0469,850.1956,19.8000,31.0200,-19.6800,-157.325,63.847,35.663,49.17438493,-121.67813894,0.00000000,
5.8650,-0.2370,-0.8278,0.3302,-0.0161,-0.3062,-0.8164,0.2471,-0.0490,-0.0096,850.1956,19.8000,31.0200,-19.6800,-157.325,63.847,35.663,49.17438493,-121.67813894,0.00000000,
5.8710,-0.2370,-0.8278,0.3302,-0.0161,-0.3062,-0.8164,0.2471,-0.0490,-0.0096,850.1768,19.8000,31.0200,-19.6800,-157.325,63.847,35.663,49.17438493,-121.67813894,0.00000000,
5.8740,-0.2370,-0.8278,0.3302,-0.0161,-0.3062,-0.8164,0.2471,-0.0490,-0.0096,850.1768,19.8000,31.0200,-19.6800,-157.325,63.847,35.663,49.17438493,-121.67813894,0.00000000,
5.8900,-0.2370,-0.8278,0.3302,0.1884,0.7051,-0.2454,0.2471,-0.0490,-0.0096,850.1768,19.8000,31.0200,-19.6800,-157.325,63.847,35.663,49.17438493,-121.67813894,0.00000000,
5.9130,-0.2658,-0.8385,0.2486,0.1884,0.7051,-0.2454,0.2471,-0.0490,-0.0096,850.1768,19.8000,31.0200,-19.6800,176.345,66.536,46.911,49.17438493,-121.67813894,0.00000000,
5.9160,-0.2658,-0.8385,0.2486,0.1884,0.7051,-0.2454,0.2471,-0.0490,-0.0096,850.1768,19.6200,31.2600,-19.4400,176.473,66.536,46.911,49.17438493,-121.67813894,0.00000000,
5.9190,-0.2658,-0.8385,0.2486,0.1884,0.7051,-0.2454,0.0714,-0.0352,-0.0937,850.1768,19.6200,31.2600,-19.4400,176.473,66.536,46.911,49.17438493,-121.67813894,0.00000000,
5.9560,-0.2658,-0.8385,0.2486,-0.1528,0.6169,-1.0435,0.0714,-0.0352,-0.0937,850.1768,19.6200,31.2600,-19.4400,176.473,66.536,46.911,49.17438493,-121.67813894,0.00000000,
5.9760,-0.2223,-0.8346,0.3141,-0.1528,0.6169,-1.0435,0.0714,-0.0352,-0.0937,850.1768,19.6200,31.2600,-19.4400,-157.611,65.246,35.289,49.17438493,-121.67813894,0.00000000,
5.9790,-0.2223,-0.8346,0.3141,-0.1528,0.6169,-1.0435,0.0714,-0.0352,-0.0937,850.1768,19.5000,31.5000,-19.2000,-156.828,65.246,35.289,49.17438493,-121.67813894,0.00000000,
5.9860,-0.2223,-0.8346,0.3141,-0.1528,0.6169,-1.0435,-0.0170,0.0490,-0.0426,850.1768,19.5000,31.5000,-19.2000,-156.828,65.246,35.289,49.17438493,-121.67813894,0.00000000,
6.0100,-0.2223,-0.8346,0.3141,0.2910,0.7172,-0.2269,-0.0170,0.0490,-0.0426,850.1768,19.5000,31.5000,-19.2000,-156.828,65.246,35.289,49.17438493,-121.67813894,0.00000000,
6.0330,-0.2663,-0.8072,0.2286,0.2910,0.7172,-0.2269,-0.0170,0.0490,-0.0426,850.1768,19.5000,31.5000,-19.2000,171.495,66.502,49.354,49.17438493,-121.67813894,0.00000000,
6.0390,-0.2663,-0.8072,0.2286,0.2910,0.7172,-0.2269,-0.0170,0.0490,-0.0426,850.1768,19.3200,31.6800,-19.0200,171.374,66.502,49.354,49.17438493,-121.67813894,0.00000000,
6.0430,-0.2663,-0.8072,0.2286,0.2910,0.7172,-0.2269,-0.2983,0.2738,0.0085,850.1768,19.3200,31.6800,-19.0200,171.374,66.502,49.354,49.17438493,-121.67813894,0.00000000,
6.0500,-0.2663,-0.8072,0.2286,0.2910,0.7172,-0.2269,-0.2983,0.2738,0.0085,850.1807,19.3200,31.6800,-19.0200,171.374,66.502,49.354,49.17438493,-121.67813894,0.00000000,
6.0530,-0.2663,-0.8072,0.2286,0.2910,0.7172,-0.2269,-0.2983,0.2738,0.0085,850.1807,19.3200,31.6800,-19.0200,171.374,66.502,49.354,49.17438493,-121.67813894,0.00000000,
6.0710,-0.2663,-0.8072,0.2286,-0.1061,1.0702,-0.7992,-0.2983,0.2738,0.0085,850.1807,19.3200,31.6800,-19.0200,171.374,66.502,49.354,49.17438493,-121.67813894,0.00000000,
6.1050,-0.1959,-0.8820,0.2677,-0.1061,1.0702,-0.7992,-0.2983,0.2738,0.0085,850.1807,19.3200,31.6800,-19.0200,-162.590,69.388,36.201,49.17438493,-121.67813894,0.00000000,
6.1110,-0.1959,-0.8820,0.2677,-0.1061,1.0702,-0.7992,-0.2983,0.2738,0.0085,850.1807,19.1400,31.7400,-18.8400,-162.431,69.388,36.201,49.17438493,-121.67813894,0.00000000,
6.1160,-0.1959,-0.8820,0.2677,-0.1061,1.0702,-0.7992,-0.4048,0.3846,0.0138,850.1807,19.1400,31.7400,-18.8400,-162.431,69.388,36.201,49.17438493,-121.67813894,0.00000000,
6.1290,-0.1959,-0.8820,0.2677,0.6411,0.4556,0.0131,-0.4048,0.3846,0.0138,850.1807,19.1400,31.7400,-18.8400,-162.431,69.388,36.201,49.17438493,-121.67813894,0.00000000,
6.1500,-0.2541,-0.8874,0.1900,0.6411,0.4556,0.0131,-0.4048,0.3846,0.0138,850.1807,19.1400,31.7400,-18.8400,165.844,70.326,53.210,49.17438493,-121.67813894,0.00000000,
6.1510,-0.2541,-0.8874,0.1900,0.6411,0.4556,0.0131,-0.4048,0.3846,0.0138,850.1807,19.0200,31.8000,-18.6600,165.915,70.326,53.210,49.17438493,-121.67813894,0.00000000,
6.1530,-0.2541,-0.8874,0.1900,0.6411,0.4556,0.0131,-0.4836,0.5763,-0.0501,850.1807,19.0200,31.8000,-18.6600,165.915,70.326,53.210,49.17438493,-121.67813894,0.00000000,
6.1940,-0.2541,-0.8874,0.1900,0.1384,0.4550,-0.4861,-0.4836,0.5763,-0.0501,850.1807,19.0200,31.8000,-18.6600,165.915,70.326,53.210,49.17438493,-121.67813894,0.00000000,
6.2270,-0.3122,-0.9480,0.2789,0.1384,0.4550,-0.4861,-0.4836,0.5763,-0.0501,850.1807,19.0200,31.8000,-18.6600,173.827,66.171,48.223,49.17438493,-121.67813894,0.00000000,
6.2290,-0.3122,-0.9480,0.2789,0.1384,0.4550,-0.4861,-0.4836,0.5763,-0.0501,850.1807,18.9000,31.8600,-18.4800,173.983,66.171,48.223,49.17438493,-121.67813894,0.00000000,
6.2310,-0.3122,-0.9480,0.2789,0.1384,0.4550,-0.4861,-0.4208,0.5092,-0.0533,850.1807,18.9000,31.8600,-18.4800,173.983,66.171,48.223,49.17438493,-121.67813894,0.00000000,
6.2320,-0.3122,-0.9480,0.2789,0.1384,0.4550,-0.4861,-0.4208,0.5092,-0.0533,850.1731,18.9000,31.8600,-18.4800,173.983,66.171,48.223,49.17438493,-121.67813894,0.00000000,
6.2340,-0.3122,-0.9480,0.2789,0.1384,0.4550,-0.4861,-0.4208,0.5092,-0.0533,850.1731,18.9000,31.8600,-18.4800,173.983,66.171,48.223,49.17438493,-121.67813894,0.00000000,
6.2480,-0.3122,-0.9480,0.2789,-0.3789,-0.1070,0.5763,-0.4208,0.5092,-0.0533,850.1731,18.9000,31.8600,-18.4800,173.983,66.171,48.223,49.17438493,-121.67813894,0.00000000,
6.2730,-0.3083,-1.0056,0.3830,-0.3789,-0.1070,0.5763,-0.4208,0.5092,-0.0533,850.1731,18.9000,31.8600,-18.4800,-161.890,63.944,38.833,49.17438493,-121.67813894,0.00000000,
6.2760,-0.3083,-1.0056,0.3830,-0.3789,-0.1070,0.5763,-0.4208,0.5092,-0.0533,850.1731,18.7800,31.8600,-18.3600,-161.719,63.944,38.833,49.17438493,-121.67813894,0.00000000,
6.2790,-0.3083,-1.0056,0.3830,-0.3789,-0.1070,0.5763,-0.2471,0.2866,-0.0256,850.1731,18.7800,31.8600,-18.3600,-161.719,63.944,38.833,49.17438493,-121.67813894,0.00000000,
6.3090,-0.3083,-1.0056,0.3830,-0.3413,-0.6604,1.6453,-0.2471,0.2866,-0.0256,850.1731,18.7800,31.8600,-18.3600,-161.719,63.944,38.833,49.17438493,-121.67813894,0.00000000,
6.3370,-0.3156,-1.0095,0.2741,-0.3413,-0.6604,1.6453,-0.2471,0.2866,-0.0256,850.1731,18.7800,31.8600,-18.3600,172.654,67.507,49.035,49.17438493,-121.67813894,0.00000000,
6.3430,-0.3156,-1.0095,0.2741,-0.3413,-0.6604,1.6453,-0.2471,0.2866,-0.0256,850.1731,18.6600,31.8600,-18.2400,172.615,67.507,49.035,49.17438493,-121.67813894,0.00000000,
6.3470,-0.3156,-1.0095,0.2741,-0.3413,-0.6604,1.6453,-0.0362,0.1140,-0.1097,850.1731,18.6600,31.8600,-18.2400,172.615,67.507,49.035,49.17438493,-121.67813894,0.00000000,
6.3670,-0.3156,-1.0095,0.2741,-0.4394,-0.6992,0.5428,-0.0362,0.1140,-0.1097,850.1731,18.6600,31.8600,-18.2400,172.615,67.507,49.035,49.17438493,-121.67813894,0.00000000,
6.3990,-0.3240,-0.9924,0.2296,-0.4394,-0.6992,0.5428,-0.0362,0.1140,-0.1097,850.1731,18.6600,31.8600,-18.2400,161.305,68.194,54.674,49.17438493,-121.67813894,0.00000000,
6.4080,-0.3240,-0.9924,0.2296,-0.4394,-0.6992,0.5428,-0.0362,0.1140,-0.1097,850.1731,18.6600,31.8000,-18.0600,161.827,68.194,54.674,49.17438493,-121.67813894,0.00000000,
6.4100,-0.3240,-0.9924,0.2296,-0.4394,-0.6992,0.5428,0.0213,0.0618,-0.0831,850.1731,18.6600,31.8000,-18.0600,161.827,68.194,54.674,49.17438493,-121.67813894,0.00000000,
6.4120,-0.3240,-0.9924,0.2296,-0.4394,-0.6992,0.5428,0.0213,0.0618,-0.0831,850.2305,18.6600,31.8000,-18.0600,161.827,68.194,54.674,49.17438493,-121.67813894,0.00000000,
6.4130,-0.3240,-0.9924,0.2296,-0.4394,-0.6992,0.5428,0.0213,0.0618,-0.0831,850.2305,18.6600,31.8000,-18.0600,161.827,68.194,54.674,49.17438493,-121.67813894,0.00000000,
6.4270,-0.3240,-0.9924,0.2296,-0.4876,-0.5548,0.0494,0.0213,0.0618,-0.0831,850.2305,18.6600,31.8000,-18.0600,161.827,68.194,54.674,49.17438493,-121.67813894,0.00000000,
6.4490,-0.3586,-0.9485,0.2076,-0.4876,-0.5548,0.0494,0.0213,0.0618,-0.0831,850.2305,18.6600,31.8000,-18.0600,148.763,66.399,59.936,49.17438493,-121.67813894,0.00000000,
6.4510,-0.3586,-0.9485,0.2076,-0.4876,-0.5548,0.0494,0.0213,0.0618,-0.0831,850.2305,18.6000,31.8000,-17.8800,148.955,66.399,59.936,49.17438493,-121.67813894,0.00000000,
6.4540,-0.3586,-0.9485,0.2076,-0.4876,-0.5548,0.0494,0.2045,0.0937,0.1012,850.2305,18.6000,31.8000,-17.8800,148.955,66.399,59.936,49.17438493,-121.67813894,0.00000000,
6.4880,-0.3586,-0.9485,0.2076,-0.7274,-0.1684,-0.2256,0.2045,0.0937,0.1012,850.2305,18.6000,31.8000,-17.8800,148.955,66.399,59.936,49.17438493,-121.67813894,0.00000000,
6.5190,-0.3450,-0.9255,0.1372,-0.7274,-0.1684,-0.2256,0.2045,0.0937,0.1012,850.2305,18.6000,31.8000,-17.8800,136.704,68.142,68.305,49.17438493,-121.67813894,0.00000000,
6.5260,-0.3450,-0.9255,0.1372,-0.7274,-0.1684,-0.2256,0.2045,0.0937,0.1012,850.2305,18.6000,31.7400,-17.7000,137.090,68.142,68.305,49.17438493,-121.67813894,0.00000000,
6.5270,-0.3450,-0.9255,0.1372,-0.7274,-0.1684,-0.2256,0.1364,-0.0554,0.1385,850.2305,18.6000,31.7400,-17.7000,137.090,68.142,68.305,49.17438493,-121.67813894,0.00000000,
6.5470,-0.3450,-0.9255,0.1372,-0.4934,0.0091,-0.9805,0.1364,-0.0554,0.1385,850.2305,18.6000,31.7400,-17.7000,137.090,68.142,68.305,49.17438493,-121.67813894,0.00000000,
6.5700,-0.3142,-0.9431,0.2174,-0.4934,0.0091,-0.9805,0.1364,-0.0554,0.1385,850.2305,18.6000,31.7400,-17.7000,161.084,67.947,55.322,49.17438493,-121.67813894,0.00000000,
6.5720,-0.3142,-0.9431,0.2174,-0.4934,0.0091,-0.9805,0.1364,-0.0554,0.1385,850.2305,18.6000,31.7400,-17.4600,161.776,67.947,55.322,49.17438493,-121.67813894,0.00000000,
6.5750,-0.3142,-0.9431,0.2174,-0.4934,0.0091,-0.9805,0.0682,-0.2386,0.1534,850.2305,18.6000,31.7400,-17.4600,161.776,67.947,55.322,49.17438493,-121.67813894,0.00000000,
6.5880,-0.3142,-0.9431,0.2174,-0.4934,0.0091,-0.9805,0.0682,-0.2386,0.1534,850.1707,18.6000,31.7400,-17.4600,161.776,67.947,55.322,49.17438493,-121.67813894,0.00000000,
6.5900,-0.3142,-0.9431,0.2174,-0.4934,0.0091,-0.9805,0.0682,-0.2386,0.1534,850.1707,18.6000,31.7400,-17.4600,161.776,67.947,55.322,49.17438493,-121.67813894,0.00000000,
6.6090,-0.3142,-0.9431,0.2174,-0.1573,-0.1915,-0.2610,0.0682,-0.2386,0.1534,850.1707,18.6000,31.7400,-17.4600,161.776,67.947,55.322,49.17438493,-121.67813894,0.00000000,
6.6360,-0.2526,-0.9260,0.2579,-0.1573,-0.1915,-0.2610,0.0682,-0.2386,0.1534,850.1707,18.6000,31.7400,-17.4600,-174.988,68.700,44.404,49.17438493,-121.67813894,0.00000000,
6.6400,-0.2526,-0.9260,0.2579,-0.1573,-0.1915,-0.2610,0.0682,-0.2386,0.1534,850.1707,18.6600,31.6800,-17.2200,-173.960,68.700,44.404,49.17438493,-121.67813894,0.00000000,
6.6450,-0.2526,-0.9260,0.2579,-0.1573,-0.1915,-0.2610,0.0405,-0.1939,0.1300,850.1707,18.6600,31.6800,-17.2200,-173.960,68.700,44.404,49.17438493,-121.67813894,0.00000000,
6.6750,-0.2526,-0.9260,0.2579,0.4232,-0.0325,0.0767,0.0405,-0.1939,0.1300,850.1707,18.6600,31.6800,-17.2200,-173.960,68.700,44.404,49.17438493,-121.67813894,0.00000000,
6.6980,-0.2424,-0.8864,0.2970,0.4232,-0.0325,0.0767,0.0405,-0.1939,0.1300,850.1707,18.6600,31.6800,-17.2200,-161.214,66.613,39.213,49.17438493,-121.67813894,0.00000000,
6.7060,-0.2424,-0.8864,0.2970,0.4232,-0.0325,0.0767,0.0405,-0.1939,0.1300,850.1707,18.7200,31.6800,-16.8000,-159.222,66.613,39.213,49.17438493,-121.67813894,0.00000000,
6.7080,-0.2424,-0.8864,0.2970,0.4232,-0.0325,0.0767,-0.0735,-0.0852,0.0298,850.1707,18.7200,31.6800,-16.8000,-159.222,66.613,39.213,49.17438493,-121.67813894,0.00000000,
6.7270,-0.2424,-0.8864,0.2970,0.5099,0.3804,0.5372,-0.0735,-0.0852,0.0298,850.1707,18.7200,31.6800,-16.8000,-159.222,66.613,39.213,49.17438493,-121.67813894,0.00000000,
6.7480,-0.3362,-0.9573,0.2159,0.5099,0.3804,0.5372,-0.0735,-0.0852,0.0298,850.1707,18.7200,31.6800,-16.8000,159.433,67.346,57.289,49.17438493,-121.67813894,0.00000000,
6.7500,-0.3362,-0.9573,0.2159,0.5099,0.3804,0.5372,-0.0735,-0.0852,0.0298,850.1707,18.7800,31.6200,-16.4400,160.839,67.346,57.289,49.17438493,-121.67813894,0.00000000,
6.7510,-0.3362,-0.9573,0.2159,0.5099,0.3804,0.5372,-0.2109,-0.0469,-0.0075,850.1707,18.7800,31.6200,-16.4400,160.839,67.346,57.289,49.17438493,-121.67813894,0.00000000,
6.7680,-0.3362,-0.9573,0.2159,0.5099,0.3804,0.5372,-0.2109,-0.0469,-0.0075,850.1523,18.7800,31.6200,-16.4400,160.839,67.346,57.289,49.17438493,-121.67813894,0.00000000,
6.7710,-0.3362,-0.9573,0.2159,0.5099,0.3804,0.5372,-0.2109,-0.0469,-0.0075,850.1523,18.7800,31.6200,-16.4400,160.839,67.346,57.289,49.17438493,-121.67813894,0.00000000,
6.7910,-0.3362,-0.9573,0.2159,-0.4325,-0.2762,-0.1383,-0.2109,-0.0469,-0.0075,850.1523,18.7800,31.6200,-16.4400,160.839,67.346,57.289,49.17438493,-121.67813894,0.00000000,
6.8140,-0.2419,-0.9846,0.2413,-0.4325,-0.2762,-0.1383,-0.2109,-0.0469,-0.0075,850.1523,18.7800,31.6200,-16.4400,-172.957,70.863,45.065,49.17438493,-121.67813894,0.00000000,
6.8180,-0.2419,-0.9846,0.2413,-0.4325,-0.2762,-0.1383,-0.2109,-0.0469,-0.0075,850.1523,18.8400,31.6200,-16.0200,-171.350,70.863,45.065,49.17438493,-121.67813894,0.00000000,
6.8280,-0.2419,-0.9846,0.2413,-0.4325,-0.2762,-0.1383,-0.1012,-0.0969,0.1097,850.1523,18.8400,31.6200,-16.0200,-171.350,70.863,45.065,49.17438493,-121.67813894,0.00000000,
6.8470,-0.2419,-0.9846,0.2413,0.4531,-0.5340,0.1043,-0.1012,-0.0969,0.1097,850.1523,18.8400,31.6200,-16.0200,-171.350,70.863,45.065,49.17438493,-121.67813894,0.00000000,
6.8720,-0.2844,-0.9367,0.1690,0.4531,-0.5340,0.1043,-0.1012,-0.0969,0.1097,850.1523,18.8400,31.6200,-16.0200,161.592,70.550,59.278,49.17438493,-121.67813894,0.00000000,
6.8750,-0.2844,-0.9367,0.1690,0.4531,-0.5340,0.1043,-0.1012,-0.0969,0.1097,850.1523,18.9600,31.5600,-15.5400,163.433,70.550,59.278,49.17438493,-121.67813894,0.00000000,
6.8790,-0.2844,-0.9367,0.1690,0.4531,-0.5340,0.1043,0.1427,-0.0692,-0.0447,850.1523,18.9600,31.5600,-15.5400,163.433,70.550,59.278,49.17438493,-121.67813894,0.00000000,
6.9080,-0.2844,-0.9367,0.1690,-0.0125,-0.0532,-0.6189,0.1427,-0.0692,-0.0447,850.1523,18.9600,31.5600,-15.5400,163.433,70.550,59.278,49.17438493,-121.67813894,0.00000000,
6.9390,-0.3342,-0.9123,0.1656,-0.0125,-0.0532,-0.6189,0.1427,-0.0692,-0.0447,850.1523,18.9600,31.5600,-15.5400,151.557,67.764,63.645,49.17438493,-121.67813894,0.00000000,
6.9480,-0.3342,-0.9123,0.1656,-0.0125,-0.0532,-0.6189,0.1427,-0.0692,-0.0447,850.1523,19.0800,31.5600,-15.0600,153.485,67.764,63.645,49.17438493,-121.67813894,0.00000000,
6.9530,-0.3342,-0.9123,0.1656,-0.0125,-0.0532,-0.6189,-0.0895,-0.0714,-0.1523,850.1523,19.0800,31.5600,-15.0600,153.485,67.764,63.645,49.17438493,-121.67813894,0.00000000,
6.9570,-0.3342,-0.9123,0.1656,-0.0125,-0.0532,-0.6189,-0.0895,-0.0714,-0.1523,850.1570,19.0800,31.5600,-15.0600,153.485,67.764,63.645,49.17438493,-121.67813894,0.00000000,
6.9620,-0.3342,-0.9123,0.1656,-0.0125,-0.0532,-0.6189,-0.0895,-0.0714,-0.1523,850.1570,19.0800,31.5600,-15.0600,153.485,67.764,63.645,49.17438493,-121.67813894,0.00000000,
6.9680,-0.3342,-0.9123,0.1656,-0.5308,0.1998,-0.6340,-0.0895,-0.0714,-0.1523,850.1570,19.0800,31.5600,-15.0600,153.485,67.764,63.645,49.17438493,-121.67813894,0.00000000,
6.9880,-0.3782,-0.9108,0.2100,-0.5308,0.1998,-0.6340,-0.0895,-0.0714,-0.1523,850.1570,19.0800,31.5600,-15.0600,154.369,64.595,60.952,49.17438493,-121.67813894,0.00000000,
6.9900,-0.3782,-0.9108,0.2100,-0.5308,0.1998,-0.6340,-0.0895,-0.0714,-0.1523,850.1570,19.2600,31.5600,-14.5800,157.170,64.595,60.952,49.17438493,-121.67813894,0.00000000,
6.9910,-0.3782,-0.9108,0.2100,-0.5308,0.1998,-0.6340,-0.1779,-0.1545,-0.0522,850.1570,19.2600,31.5600,-14.5800,157.170,64.595,60.952,49.17438493,-121.67813894,0.00000000,
7.0280,-0.3782,-0.9108,0.2100,-0.9726,0.2201,-0.1873,-0.1779,-0.1545,-0.0522,850.1570,19.2600,31.5600,-14.5800,157.170,64.595,60.952,49.17438493,-121.67813894,0.00000000,
7.0510,-0.3445,-0.9553,0.2824,-0.9726,0.2201,-0.1873,-0.1779,-0.1545,-0.0522,850.1570,19.2600,31.5600,-14.5800,-173.762,65.003,50.659,49.17438493,-121.67813894,0.00000000,
7.0530,-0.3445,-0.9553,0.2824,-0.9726,0.2201,-0.1873,-0.1779,-0.1545,-0.0522,850.1570,19.3800,31.5000,-14.1000,-170.637,65.003,50.659,49.17438493,-121.67813894,0.00000000,
7.0570,-0.3445,-0.9553,0.2824,-0.9726,0.2201,-0.1873,-0.1470,-0.2684,0.0117,850.1570,19.3800,31.5000,-14.1000,-170.637,65.003,50.659,49.17438493,-121.67813894,0.00000000,
7.0910,-0.3445,-0.9553,0.2824,-0.6355,-0.2183,0.5187,-0.1470,-0.2684,0.0117,850.1570,19.3800,31.5000,-14.1000,-170.637,65.003,50.659,49.17438493,-121.67813894,0.00000000,
7.1110,-0.3000,-0.9069,0.2130,-0.6355,-0.2183,0.5187,-0.1470,-0.2684,0.0117,850.1570,19.3800,31.5000,-14.1000,178.458,67.919,54.629,49.17439401,-121.67813885,0.00000000,
7.1140,-0.3000,-0.9069,0.2130,-0.6355,-0.2183,0.5187,-0.1470,-0.2684,0.0117,850.1570,19.5600,31.5000,-13.6200,-178.789,67.919,54.629,49.17439401,-121.67813885,0.00000000,
7.1190,-0.3000,-0.9069,0.2130,-0.6355,-0.2183,0.5187,-0.1758,-0.1385,0.0714,850.1570,19.5600,31.5000,-13.6200,-178.789,67.919,54.629,49.17439401,-121.67813885,0.00000000,
7.1260,-0.3000,-0.9069,0.2130,-0.6355,-0.2183,0.5187,-0.1758,-0.1385,0.0714,850.2080,19.5600,31.5000,-13.6200,-178.789,67.919,54.629,49.17439401,-121.67813885,0.00000000,
7.1270,-0.3000,-0.9069,0.2130,-0.6355,-0.2183,0.5187,-0.1758,-0.1385,0.0714,850.2080,19.5600,31.5000,-13.6200,-178.789,67.919,54.629,49.17439401,-121.67813885,0.00000000,
7.1460,-0.3000,-0.9069,0.2130,-0.1531,0.2813,0.0067,-0.1758,-0.1385,0.0714,850.2080,19.5600,31.5000,-13.6200,-178.789,67.919,54.629,49.17439401,-121.67813885,0.00000000,
7.1690,-0.3156,-0.9582,0.1455,-0.1531,0.2813,0.0067,-0.1758,-0.1385,0.0714,850.2080,19.5600,31.5000,-13.6200,159.739,70.063,65.245,49.17439401,-121.67813885,0.00000000,
7.1720,-0.3156,-0.9582,0.1455,-0.1531,0.2813,0.0067,-0.1758,-0.1385,0.0714,850.2080,19.7400,31.4400,-13.1400,162.027,70.063,65.245,49.17439401,-121.67813885,0.00000000,
7.1740,-0.3156,-0.9582,0.1455,-0.1531,0.2813,0.0067,-0.2855,-0.2876,0.0969,850.2080,19.7400,31.4400,-13.1400,162.027,70.063,65.245,49.17439401,-121.67813885,0.00000000,
7.2060,-0.3156,-0.9582,0.1455,-0.3209,-0.2035,-0.5936,-0.2855,-0.2876,0.0969,850.2080,19.7400,31.4400,-13.1400,162.027,70.063,65.245,49.17439401,-121.67813885,0.00000000,
7.2330,-0.2526,-0.9494,0.2061,-0.3209,-0.2035,-0.5936,-0.2855,-0.2876,0.0969,850.2080,19.7400,31.4400,-13.1400,-169.249,71.047,50.785,49.17439401,-121.67813885,0.00000000,
7.2380,-0.2526,-0.9494,0.2061,-0.3209,-0.2035,-0.5936,-0.2855,-0.2876,0.0969,850.2080,19.8600,31.4400,-12.6600,-167.013,71.047,50.785,49.17439401,-121.67813885,0.00000000,
7.2430,-0.2526,-0.9494,0.2061,-0.3209,-0.2035,-0.5936,-0.1545,-0.2748,0.0831,850.2080,19.8600,31.4400,-12.6600,-167.013,71.047,50.785,49.17439401,-121.67813885,0.00000000,
7.2710,-0.2526,-0.9494,0.2061,0.2579,-0.0981,0.0347,-0.1545,-0.2748,0.0831,850.2080,19.8600,31.4400,-12.6600,-167.013,71.047,50.785,49.17439401,-121.67813885,0.00000000,
7.2930,-0.2482,-0.9602,0.1656,0.2579,-0.0981,0.0347,-0.1545,-0.2748,0.0831,850.2080,19.8600,31.4400,-12.6600,-177.870,72.738,56.294,49.17439401,-121.67813885,0.00000000,
7.2970,-0.2482,-0.9602,0.1656,0.2579,-0.0981,0.0347,-0.1545,-0.2748,0.0831,850.2080,20.0400,31.3800,-12.2400,-175.900,72.738,56.294,49.17439401,-121.67813885,0.00000000,
7.3110,-0.2482,-0.9602,0.1656,0.2579,-0.0981,0.0347,-0.0554,-0.2333,0.0607,850.2080,20.0400,31.3800,-12.2400,-175.900,72.738,56.294,49.17439401,-121.67813885,0.00000000,
7.3150,-0.2482,-0.9602,0.1656,0.2579,-0.0981,0.0347,-0.0554,-0.2333,0.0607,850.1143,20.0400,31.3800,-12.2400,-175.900,72.738,56.294,49.17439401,-121.67813885,0.00000000,
7.3180,-0.2482,-0.9602,0.1656,0.2579,-0.0981,0.0347,-0.0554,-0.2333,0.0607,850.1143,20.0400,31.3800,-12.2400,-175.900,72.738,56.294,49.17439401,-121.67813885,0.00000000,
7.3270,-0.2482,-0.9602,0.1656,0.3052,-0.1968,-0.3256,-0.0554,-0.2333,0.0607,850.1143,20.0400,31.3800,-12.2400,-175.900,72.738,56.294,49.17439401,-121.67813885,0.00000000,
7.3500,-0.2438,-0.9695,0.1993,0.3052,-0.1968,-0.3256,-0.0554,-0.2333,0.0607,850.1143,20.0400,31.3800,-12.2400,-165.539,72.005,50.738,49.17439401,-121.67813885,0.00000000,
7.3530,-0.2438,-0.9695,0.1993,0.3052,-0.1968,-0.3256,-0.0554,-0.2333,0.0607,850.1143,20.1000,31.3800,-11.8800,-163.967,72.005,50.738,49.17439401,-121.67813885,0.00000000,
7.3560,-0.2438,-0.9695,0.1993,0.3052,-0.1968,-0.3256,-0.0458,-0.1332,0.0000,850.1143,20.1000,31.3800,-11.8800,-163.967,72.005,50.738,49.17439401,-121.67813885,0.00000000,
7.3880,-0.2438,-0.9695,0.1993,0.3450,-0.2836,0.0202,-0.0458,-0.1332,0.0000,850.1143,20.1000,31.3800,-11.8800,-163.967,72.005,50.738,49.17439401,-121.67813885,0.00000000,
7.4210,-0.2511,-0.8991,0.1890,0.3450,-0.2836,0.0202,-0.0458,-0.1332,0.0000,850.1143,20.1000,31.3800,-11.8800,-167.331,70.730,53.032,49.17439401,-121.67813885,0.00000000,
7.4280,-0.2511,-0.8991,0.1890,0.3450,-0.2836,0.0202,-0.0458,-0.1332,0.0000,850.1143,20.2200,31.3200,-11.5200,-165.531,70.730,53.032,49.17439401,-121.67813885,0.00000000,
7.4410,-0.2511,-0.8991,0.1890,0.3450,-0.2836,0.0202,0.0053,-0.0629,0.0735,850.1143,20.2200,31.3200,-11.5200,-165.531,70.730,53.032,49.17439401,-121.67813885,0.00000000,
7.4550,-0.2511,-0.8991,0.1890,0.2443,0.4099,-0.1022,0.0053,-0.0629,0.0735,850.1143,20.2200,31.3200,-11.5200,-165.531,70.730,53.032,49.17439401,-121.67813885,0.00000000,
7.4720,-0.2296,-0.9431,0.1754,0.2443,0.4099,-0.1022,0.0053,-0.0629,0.0735,850.1143,20.2200,31.3200,-11.5200,-166.400,72.966,52.636,49.17439401,-121.67813885,0.00000000,
7.4760,-0.2296,-0.9431,0.1754,0.2443,0.4099,-0.1022,0.0053,-0.0629,0.0735,850.1143,20.2800,31.2600,-11.2200,-165.127,72.966,52.636,49.17439401,-121.67813885,0.00000000,
7.4800,-0.2296,-0.9431,0.1754,0.2443,0.4099,-0.1022,-0.0277,0.0011,-0.0117,850.1143,20.2800,31.2600,-11.2200,-165.127,72.966,52.636,49.17439401,-121.67813885,0.00000000,
7.4870,-0.2296,-0.9431,0.1754,0.2443,0.4099,-0.1022,-0.0277,0.0011,-0.0117,850.1946,20.2800,31.2600,-11.2200,-165.127,72.966,52.636,49.17439401,-121.67813885,0.00000000,
7.4900,-0.2296,-0.9431,0.1754,0.2443,0.4099,-0.1022,-0.0277,0.0011,-0.0117,850.1946,20.2800,31.2600,-11.2200,-165.127,72.966,52.636,49.17439401,-121.67813885,0.00000000,
7.5070,-0.2296,-0.9431,0.1754,0.4707,-0.0260,-0.2375,-0.0277,0.0011,-0.0117,850.1946,20.2800,31.2600,-11.2200,-165.127,72.966,52.636,49.17439401,-121.67813885,0.00000000,
7.5290,-0.3132,-0.9328,0.1749,0.4707,-0.0260,-0.2375,-0.0277,0.0011,-0.0117,850.1946,20.2800,31.2600,-11.2200,-179.508,68.966,60.825,49.17439401,-121.67813885,0.00000000,
7.5330,-0.3132,-0.9328,0.1749,0.4707,-0.0260,-0.2375,-0.0277,0.0011,-0.0117,850.1946,20.3400,31.2600,-11.0400,-178.477,68.966,60.825,49.17439401,-121.67813885,0.00000000,
7.5370,-0.3132,-0.9328,0.1749,0.4707,-0.0260,-0.2375,0.0874,-0.0298,0.0107,850.1946,20.3400,31.2600,-11.0400,-178.477,68.966,60.825,49.17439401,-121.67813885,0.00000000,
7.5680,-0.3132,-0.9328,0.1749,-0.3617,0.0730,-0.2684,0.0874,-0.0298,0.0107,850.1946,20.3400,31.2600,-11.0400,-178.477,68.966,60.825,49.17439401,-121.67813885,0.00000000,
7.5880,-0.2819,-0.9020,0.1885,-0.3617,0.0730,-0.2684,0.0874,-0.0298,0.0107,850.1946,20.3400,31.2600,-11.0400,-168.605,69.394,56.227,49.17439401,-121.67813885,0.00000000,
7.5890,-0.2819,-0.9020,0.1885,-0.3617,0.0730,-0.2684,0.0874,-0.0298,0.0107,850.1946,20.3400,31.2000,-10.9200,-168.040,69.394,56.227,49.17439401,-121.67813885,0.00000000,
7.5910,-0.2819,-0.9020,0.1885,-0.3617,0.0730,-0.2684,0.0138,-0.0202,0.0032,850.1946,20.3400,31.2000,-10.9200,-168.040,69.394,56.227,49.17439401,-121.67813885,0.00000000,
7.6240,-0.2819,-0.9020,0.1885,-0.0640,0.3761,-0.1399,0.0138,-0.0202,0.0032,850.1946,20.3400,31.2000,-10.9200,-168.040,69.394,56.227,49.17439401,-121.67813885,0.00000000,
7.6530,-0.2551,-0.9529,0.1837,-0.0640,0.3761,-0.1399,0.0138,-0.0202,0.0032,850.1946,20.3400,31.2000,-10.9200,-165.814,71.745,54.244,49.17439401,-121.67813885,0.00000000,
7.6690,-0.2551,-0.9529,0.1837,-0.0640,0.3761,-0.1399,0.0138,-0.0202,0.0032,850.1946,20.4000,31.2000,-10.8600,-165.452,71.745,54.244,49.17439401,-121.67813885,0.00000000,
7.6740,-0.2551,-0.9529,0.1837,-0.0640,0.3761,-0.1399,-0.0224,0.0000,0.0234,850.1946,20.4000,31.2000,-10.8600,-165.452,71.745,54.244,49.17439401,-121.67813885,0.00000000,
7.6790,-0.2551,-0.9529,0.1837,-0.0640,0.3761,-0.1399,-0.0224,0.0000,0.0234,850.1685,20.4000,31.2000,-10.8600,-165.452,71.745,54.244,49.17439401,-121.67813885,0.00000000,
7.6890,-0.2551,-0.9529,0.1837,-0.0640,0.3761,-0.1399,-0.0224,0.0000,0.0234,850.1685,20.4000,31.2000,-10.8600,-165.452,71.745,54.244,49.17439401,-121.67813885,0.00000000,
7.6930,-0.2551,-0.9529,0.1837,0.2122,-0.1170,-0.1469,-0.0224,0.0000,0.0234,850.1685,20.4000,31.2000,-10.8600,-165.452,71.745,54.244,49.17439401,-121.67813885,0.00000000,
7.7100,-0.2766,-0.9680,0.2091,0.2122,-0.1170,-0.1469,-0.0224,0.0000,0.0234,850.1685,20.4000,31.2000,-10.8600,-161.643,70.295,52.912,49.17439401,-121.67813885,0.00000000,
7.7130,-0.2766,-0.9680,0.2091,0.2122,-0.1170,-0.1469,-0.0224,0.0000,0.0234,850.1685,20.4000,31.1400,-10.8600,-161.674,70.295,52.912,49.17439401,-121.67813885,0.00000000,
7.7160,-0.2766,-0.9680,0.2091,0.2122,-0.1170,-0.1469,0.0011,0.0362,0.0501,850.1685,20.4000,31.1400,-10.8600,-161.674,70.295,52.912,49.17439401,-121.67813885,0.00000000,
7.7520,-0.2766,-0.9680,0.2091,0.0000,-0.2632,0.1108,0.0011,0.0362,0.0501,850.1685,20.4000,31.1400,-10.8600,-161.674,70.295,52.912,49.17439401,-121.67813885,0.00000000,
7.7730,-0.2849,-0.9455,0.1680,0.0000,-0.2632,0.1108,0.0011,0.0362,0.0501,850.1685,20.4000,31.1400,-10.8600,-174.986,70.721,59.466,49.17439401,-121.67813885,0.00000000,
7.7770,-0.2849,-0.9455,0.1680,0.0000,-0.2632,0.1108,0.0011,0.0362,0.0501,850.1685,20.4000,31.1400,-10.8000,-174.718,70.721,59.466,49.17439401,-121.67813885,0.00000000,
7.7810,-0.2849,-0.9455,0.1680,0.0000,-0.2632,0.1108,-0.0202,0.0011,0.0043,850.1685,20.4000,31.1400,-10.8000,-174.718,70.721,59.466,49.17439401,-121.67813885,0.00000000,
7.8070,-0.2849,-0.9455,0.1680,-0.0886,-0.0381,-0.2787,-0.0202,0.0011,0.0043,850.1685,20.4000,31.1400,-10.8000,-174.718,70.721,59.466,49.17439401,-121.67813885,0.00000000,
7.8310,-0.2853,-0.9665,0.1905,-0.0886,-0.0381,-0.2787,-0.0202,0.0011,0.0043,850.1685,20.4000,31.1400,-10.8000,-168.201,70.457,56.273,49.17439401,-121.67813885,0.00000000,
7.8340,-0.2853,-0.9665,0.1905,-0.0886,-0.0381,-0.2787,-0.0202,0.0011,0.0043,850.1685,20.4000,31.0800,-10.8000,-168.221,70.457,56.273,49.17439401,-121.67813885,0.00000000,
7.8380,-0.2853,-0.9665,0.1905,-0.0886,-0.0381,-0.2787,-0.0277,-0.0202,-0.0160,850.1685,20.4000,31.0800,-10.8000,-168.221,70.457,56.273,49.17439401,-121.67813885,0.00000000,
7.8510,-0.2853,-0.9665,0.1905,-0.0886,-0.0381,-0.2787,-0.0277,-0.0202,-0.0160,850.1670,20.4000,31.0800,-10.8000,-168.221,70.457,56.273,49.17439401,-121.67813885,0.00000000,
7.8560,-0.2853,-0.9665,0.1905,-0.0886,-0.0381,-0.2787,-0.0277,-0.0202,-0.0160,850.1670,20.4000,31.0800,-10.8000,-168.221,70.457,56.273,49.17439401,-121.67813885,0.00000000,
7.8660,-0.2853,-0.9665,0.1905,-0.1218,-0.2450,-0.1022,-0.0277,-0.0202,-0.0160,850.1670,20.4000,31.0800,-10.8000,-168.221,70.457,56.273,49.17439401,-121.67813885,0.00000000,
7.8900,-0.2585,-0.9055,0.2056,-0.1218,-0.2450,-0.1022,-0.0277,-0.0202,-0.0160,850.1670,20.4000,31.0800,-10.8000,-158.271,69.959,51.494,49.17439401,-121.67813885,0.00000000,
7.8930,-0.2585,-0.9055,0.2056,-0.1218,-0.2450,-0.1022,-0.0277,-0.0202,-0.0160,850.1670,20.4000,31.0800,-10.8000,-158.271,69.959,51.494,49.17439401,-121.67813885,0.00000000,
7.8960,-0.2585,-0.9055,0.2056,-0.1218,-0.2450,-0.1022,-0.0170,-0.0170,-0.0618,850.1670,20.4000,31.0800,-10.8000,-158.271,69.959,51.494,49.17439401,-121.67813885,0.00000000,
7.9270,-0.2585,-0.9055,0.2056,0.0971,0.3748,0.0863,-0.0170,-0.0170,-0.0618,850.1670,20.4000,31.0800,-10.8000,-158.271,69.959,51.494,49.17439401,-121.67813885,0.00000000,
7.9550,-0.2546,-0.9758,0.2096,0.0971,0.3748,0.0863,-0.0170,-0.0170,-0.0618,850.1670,20.4000,31.0800,-10.8000,-158.040,71.330,50.540,49.17439401,-121.67813885,0.00000000,
7.9580,-0.2546,-0.9758,0.2096,0.0971,0.3748,0.0863,-0.0170,-0.0170,-0.0618,850.1670,20.4000,31.0200,-10.8600,-158.334,71.330,50.540,49.17439401,-121.67813885,0.00000000,
7.9620,-0.2546,-0.9758,0.2096,0.0971,0.3748,0.0863,-0.0714,0.0234,-0.0256,850.1670,20.4000,31.0200,-10.8600,-158.334,71.330,50.540,49.17439401,-121.67813885,0.00000000,
7.9860,-0.2546,-0.9758,0.2096,0.0993,-0.3017,0.1381,-0.0714,0.0234,-0.0256,850.1670,20.4000,31.0200,-10.8600,-158.334,71.330,50.540,49.17439401,-121.67813885,0.00000000,
8.0090,-0.2902,-0.9573,0.1509,0.0993,-0.3017,0.1381,-0.0714,0.0234,-0.0256,850.1670,20.4000,31.0200,-10.8600,178.917,71.133,62.526,49.17439401,-121.67813885,0.00000000,
8.0130,-0.2902,-0.9573,0.1509,0.0993,-0.3017,0.1381,-0.0714,0.0234,-0.0256,850.1670,20.4000,31.0200,-10.8600,178.917,71.133,62.526,49.17439401,-121.67813885,0.00000000,
8.0170,-0.2902,-0.9573,0.1509,0.0993,-0.3017,0.1381,-0.0298,0.0415,-0.0192,850.1670,20.4000,31.0200,-10.8600,178.917,71.133,62.526,49.17439401,-121.67813885,0.00000000,
8.0250,-0.2902,-0.9573,0.1509,0.0993,-0.3017,0.1381,-0.0298,0.0415,-0.0192,850.2285,20.4000,31.0200,-10.8600,178.917,71.133,62.526,49.17439401,-121.67813885,0.00000000,
8.0280,-0.2902,-0.9573,0.1509,0.0993,-0.3017,0.1381,-0.0298,0.0415,-0.0192,850.2285,20.4000,31.0200,-10.8600,178.917,71.133,62.526,49.17439401,-121.67813885,0.00000000,
8.0490,-0.2902,-0.9573,0.1509,-0.2453,-0.1167,-0.4150,-0.0298,0.0415,-0.0192,850.2285,20.4000,31.0200,-10.8600,178.917,71.133,62.526,49.17439401,-121.67813885,0.00000000,
8.0750,-0.2575,-0.9059,0.1758,-0.2453,-0.1167,-0.4150,-0.0298,0.0415,-0.0192,850.2285,20.4000,31.0200,-10.8600,-167.695,71.008,55.672,49.17439401,-121.67813885,0.00000000,
8.0790,-0.2575,-0.9059,0.1758,-0.2453,-0.1167,-0.4150,-0.0298,0.0415,-0.0192,850.2285,20.4000,31.0200,-10.8600,-167.695,71.008,55.672,49.17439401,-121.67813885,0.00000000,
8.0920,-0.2575,-0.9059,0.1758,-0.2453,-0.1167,-0.4150,0.0490,-0.0352,0.0160,850.2285,20.4000,31.0200,-10.8600,-167.695,71.008,55.672,49.17439401,-121.67813885,0.00000000,
8.1040,-0.2575,-0.9059,0.1758,0.0948,0.3787,-0.1800,0.0490,-0.0352,0.0160,850.2285,20.4000,31.0200,-10.8600,-167.695,71.008,55.672,49.17439401,-121.67813885,0.00000000,
8.1270,-0.3147,-0.9216,0.1431,0.0948,0.3787,-0.1800,0.0490,-0.0352,0.0160,850.2285,20.4000,31.0200,-10.8600,172.334,69.439,65.545,49.17439401,-121.67813885,0.00000000,
8.1300,-0.3147,-0.9216,0.1431,0.0948,0.3787,-0.1800,0.0490,-0.0352,0.0160,850.2285,20.4000,31.0200,-10.8600,172.334,69.439,65.545,49.17439401,-121.67813885,0.00000000,
8.1330,-0.3147,-0.9216,0.1431,0.0948,0.3787,-0.1800,-0.1513,-0.0256,-0.0181,850.2285,20.4000,31.0200,-10.8600,172.334,69.439,65.545,49.17439401,-121.67813885,0.00000000,
8.1670,-0.3147,-0.9216,0.1431,-0.4368,0.2483,-0.3434,-0.1513,-0.0256,-0.0181,850.2285,20.4000,31.0200,-10.8600,172.334,69.439,65.545,49.17439401,-121.67813885,0.00000000,
8.1880,-0.3220,-0.9597,0.1504,-0.4368,0.2483,-0.3434,-0.1513,-0.0256,-0.0181,850.2285,20.4000,31.0200,-10.8600,173.677,69.679,64.959,49.17439401,-121.67813885,0.00000000,
8.1910,-0.3220,-0.9597,0.1504,-0.4368,0.2483,-0.3434,-0.1513,-0.0256,-0.0181,850.2285,20.4000,31.0200,-10.8600,173.677,69.679,64.959,49.17439401,-121.67813885,0.00000000,
8.1950,-0.3220,-0.9597,0.1504,-0.4368,0.2483,-0.3434,-0.0895,-0.1822,0.0586,850.2285,20.4000,31.0200,-10.8600,173.677,69.679,64.959,49.17439401,-121.67813885,0.00000000,
8.2090,-0.3220,-0.9597,0.1504,-0.4368,0.2483,-0.3434,-0.0895,-0.1822,0.0586,850.1816,20.4000,31.0200,-10.8600,173.677,69.679,64.959,49.17439401,-121.67813885,0.00000000,
8.2120,-0.3220,-0.9597,0.1504,-0.4368,0.2483,-0.3434,-0.0895,-0.1822,0.0586,850.1816,20.4000,31.0200,-10.8600,173.677,69.679,64.959,49.17439401,-121.67813885,0.00000000,
8.2250,-0.3220,-0.9597,0.1504,-0.4196,-0.1828,-0.4325,-0.0895,-0.1822,0.0586,850.1816,20.4000,31.0200,-10.8600,173.677,69.679,64.959,49.17439401,-121.67813885,0.00000000,
8.2510,-0.2301,-1.0261,0.1680,-0.4196,-0.1828,-0.4325,-0.0895,-0.1822,0.0586,850.1816,20.4000,31.0200,-10.8600,-166.666,74.481,53.867,49.17439401,-121.67813885,0.00000000,
8.2580,-0.2301,-1.0261,0.1680,-0.4196,-0.1828,-0.4325,-0.0895,-0.1822,0.0586,850.1816,20.4000,31.0200,-10.8600,-166.666,74.481,53.867,49.17439401,-121.67813885,0.00000000,
8.2660,-0.2301,-1.0261,0.1680,-0.4196,-0.1828,-0.4325,0.1704,-0.1779,-0.0969,850.1816,20.4000,31.0200,-10.8600,-166.666,74.481,53.867,49.17439401,-121.67813885,0.00000000,
8.2840,-0.2301,-1.0261,0.1680,0.4281,-0.8588,-0.4453,0.1704,-0.1779,-0.0969,850.1816,20.4000,31.0200,-10.8600,-166.666,74.481,53.867,49.17439401,-121.67813885,0.00000000,
8.3060,-0.1036,-0.9924,0.2418,0.4281,-0.8588,-0.4453,0.1704,-0.1779,-0.0969,850.1816,20.4000,31.0200,-10.8600,-123.184,75.154,23.190,49.17439401,-121.67813885,0.00000000,
8.3080,-0.1036,-0.9924,0.2418,0.4281,-0.8588,-0.4453,0.1704,-0.1779,-0.0969,850.1816,20.4000,31.0200,-10.8600,-123.184,75.154,23.190,49.17439401,-121.67813885,0.00000000,
8.3090,-0.1036,-0.9924,0.2418,0.4281,-0.8588,-0.4453,0.3004,-0.0639,-0.1491,850.1816,20.4000,31.0200,-10.8600,-123.184,75.154,23.190,49.17439401,-121.67813885,0.00000000,
8.3440,-0.1036,-0.9924,0.2418,1.5765,-0.5330,0.1458,0.3004,-0.0639,-0.1491,850.1816,20.4000,31.0200,-10.8600,-123.184,75.154,23.190,49.17439401,-121.67813885,0.00000000,
8.3680,-0.2028,-1.0340,0.2096,1.5765,-0.5330,0.1458,0.3004,-0.0639,-0.1491,850.1816,20.4000,31.0200,-10.8600,-150.850,74.250,44.058,49.17439401,-121.67813885,0.00000000,
8.3710,-0.2028,-1.0340,0.2096,1.5765,-0.5330,0.1458,0.3004,-0.0639,-0.1491,850.1816,20.4000,31.0800,-10.8600,-150.819,74.250,44.058,49.17439401,-121.67813885,0.00000000,
8.3740,-0.2028,-1.0340,0.2096,1.5765,-0.5330,0.1458,0.3281,0.1332,-0.0650,850.1816,20.4000,31.0800,-10.8600,-150.819,74.250,44.058,49.17439401,-121.67813885,0.00000000,
8.3850,-0.2028,-1.0340,0.2096,1.5765,-0.5330,0.1458,0.3281,0.1332,-0.0650,850.1538,20.4000,31.0800,-10.8600,-150.819,74.250,44.058,49.17439401,-121.67813885,0.00000000,
8.3910,-0.2028,-1.0340,0.2096,1.5765,-0.5330,0.1458,0.3281,0.1332,-0.0650,850.1538,20.4000,31.0800,-10.8600,-150.819,74.250,44.058,49.17439401,-121.67813885,0.00000000,
8.4060,-0.2028,-1.0340,0.2096,0.4745,-0.9739,-0.4413,0.3281,0.1332,-0.0650,850.1538,20.4000,31.0800,-10.8600,-150.819,74.250,44.058,49.17439401,-121.67813885,0.00000000,
8.4280,-0.1593,-0.7623,0.4578,0.4745,-0.9739,-0.4413,0.3281,0.1332,-0.0650,850.1538,20.4000,31.0800,-10.8600,-81.438,57.551,19.186,49.17439401,-121.67813885,0.00000000,
8.4310,-0.1593,-0.7623,0.4578,0.4745,-0.9739,-0.4413,0.3281,0.1332,-0.0650,850.1538,20.4000,31.0800,-10.9200,-81.599,57.551,19.186,49.17439401,-121.67813885,0.00000000,
8.4340,-0.1593,-0.7623,0.4578,0.4745,-0.9739,-0.4413,1.0535,-0.0032,-0.0096,850.1538,20.4000,31.0800,-10.9200,-81.599,57.551,19.186,49.17439401,-121.67813885,0.00000000,
8.4710,-0.1593,-0.7623,0.4578,0.8068,1.7309,2.0577,1.0535,-0.0032,-0.0096,850.1538,20.4000,31.0800,-10.9200,-81.599,57.551,19.186,49.17439401,-121.67813885,0.00000000,
8.4890,-0.2536,-0.9719,0.1299,0.8068,1.7309,2.0577,1.0535,-0.0032,-0.0096,850.1538,20.4000,31.0800,-10.9200,178.222,73.661,62.875,49.17439401,-121.67813885,0.00000000,
8.4920,-0.2536,-0.9719,0.1299,0.8068,1.7309,2.0577,1.0535,-0.0032,-0.0096,850.1538,20.4000,31.0800,-10.9800,177.999,73.661,62.875,49.17439401,-121.67813885,0.00000000,
8.4950,-0.2536,-0.9719,0.1299,0.8068,1.7309,2.0577,-0.2045,0.4027,-0.2013,850.1538,20.4000,31.0800,-10.9800,177.999,73.661,62.875,49.17439401,-121.67813885,0.00000000,
8.5270,-0.2536,-0.9719,0.1299,-0.0113,-0.3893,-1.2946,-0.2045,0.4027,-0.2013,850.1538,20.4000,31.0800,-10.9800,177.999,73.661,62.875,49.17439401,-121.67813885,0.00000000,
8.5480,-0.3225,-1.0154,0.2213,-0.0113,-0.3893,-1.2946,-0.2045,0.4027,-0.2013,850.1538,20.4000,31.0800,-10.9800,-166.447,68.935,55.543,49.17439401,-121.67813885,0.00000000,
8.5510,-0.3225,-1.0154,0.2213,-0.0113,-0.3893,-1.2946,-0.2045,0.4027,-0.2013,850.1538,20.3400,31.0800,-11.0400,-166.867,68.935,55.543,49.17439401,-121.67813885,0.00000000,
8.5540,-0.3225,-1.0154,0.2213,-0.0113,-0.3893,-1.2946,0.2589,0.3132,-0.2248,850.1538,20.3400,31.0800,-11.0400,-166.867,68.935,55.543,49.17439401,-121.67813885,0.00000000,
8.5640,-0.3225,-1.0154,0.2213,-0.0113,-0.3893,-1.2946,0.2589,0.3132,-0.2248,850.1641,20.3400,31.0800,-11.0400,-166.867,68.935,55.543,49.17439401,-121.67813885,0.00000000,
8.5680,-0.3225,-1.0154,0.2213,-0.0113,-0.3893,-1.2946,0.2589,0.3132,-0.2248,850.1641,20.3400,31.0800,-11.0400,-166.867,68.935,55.543,49.17439401,-121.67813885,0.00000000,
8.5880,-0.3225,-1.0154,0.2213,-0.7903,-0.8138,-0.4898,0.2589,0.3132,-0.2248,850.1641,20.3400,31.0800,-11.0400,-166.867,68.935,55.543,49.17439401,-121.67813885,0.00000000,
8.6090,-0.1666,-1.2929,0.2442,-0.7903,-0.8138,-0.4898,0.2589,0.3132,-0.2248,850.1641,20.3400,31.0800,-11.0400,-141.148,77.119,34.301,49.17439401,-121.67813885,0.00000000,
8.6120,-0.1666,-1.2929,0.2442,-0.7903,-0.8138,-0.4898,0.2589,0.3132,-0.2248,850.1641,20.2800,31.0800,-11.1600,-141.594,77.119,34.301,49.17439401,-121.67813885,0.00000000,
8.6150,-0.1666,-1.2929,0.2442,-0.7903,-0.8138,-0.4898,0.2876,0.3324,-0.1875,850.1641,20.2800,31.0800,-11.1600,-141.594,77.119,34.301,49.17439401,-121.67813885,0.00000000,
8.6460,-0.1666,-1.2929,0.2442,0.7020,-3.5957,-0.4983,0.2876,0.3324,-0.1875,850.1641,20.2800,31.0800,-11.1600,-141.594,77.119,34.301,49.17439401,-121.67813885,0.00000000,
8.6670,0.1109,-0.6245,0.4583,0.7020,-3.5957,-0.4983,0.2876,0.3324,-0.1875,850.1641,20.2800,31.0800,-11.1600,-58.147,52.948,-13.606,49.17439401,-121.67813885,0.00000000,
8.6700,0.1109,-0.6245,0.4583,0.7020,-3.5957,-0.4983,0.2876,0.3324,-0.1875,850.1641,20.2200,31.0800,-11.3400,-58.409,52.948,-13.606,49.17439401,-121.67813885,0.00000000,
8.6750,0.1109,-0.6245,0.4583,0.7020,-3.5957,-0.4983,0.2919,0.2706,-0.2216,850.1641,20.2200,31.0800,-11.3400,-58.409,52.948,-13.606,49.17439401,-121.67813885,0.00000000,
8.7100,0.1109,-0.6245,0.4583,3.3270,2.9626,1.5488,0.2919,0.2706,-0.2216,850.1641,20.2200,31.0800,-11.3400,-58.409,52.948,-13.606,49.17439401,-121.67813885,0.00000000,
8.7270,-0.2213,-0.9724,0.3214,3.3270,2.9626,1.5488,0.2919,0.2706,-0.2216,850.1641,20.2200,31.0800,-11.3400,-127.108,68.132,34.551,49.17439401,-121.67813885,0.00000000,
8.7300,-0.2213,-0.9724,0.3214,3.3270,2.9626,1.5488,0.2919,0.2706,-0.2216,850.1641,20.1600,31.0800,-11.5200,-127.898,68.132,34.551,49.17439401,-121.67813885,0.00000000,
8.7340,-0.2213,-0.9724,0.3214,3.3270,2.9626,1.5488,0.4133,-0.0075,-0.2791,850.1641,20.1600,31.0800,-11.5200,-127.898,68.132,34.551,49.17439401,-121.67813885,0.00000000,
8.7470,-0.2213,-0.9724,0.3214,3.3270,2.9626,1.5488,0.4133,-0.0075,-0.2791,850.1765,20.1600,31.0800,-11.5200,-127.898,68.132,34.551,49.17439401,-121.67813885,0.00000000,
8.7500,-0.2213,-0.9724,0.3214,3.3270,2.9626,1.5488,0.4133,-0.0075,-0.2791,850.1765,20.1600,31.0800,-11.5200,-127.898,68.132,34.551,49.17439401,-121.67813885,0.00000000,
8.7640,-0.2213,-0.9724,0.3214,-0.1379,-0.4700,-0.0073,0.4133,-0.0075,-0.2791,850.1765,20.1600,31.0800,-11.5200,-127.898,68.132,34.551,49.17439401,-121.67813885,0.00000000,
8.7890,-0.1344,-0.8820,0.2985,-0.1379,-0.4700,-0.0073,0.4133,-0.0075,-0.2791,850.1765,20.1600,31.0800,-11.5200,-116.451,69.639,24.236,49.17439401,-121.67813885,0.00000000,
8.7940,-0.1344,-0.8820,0.2985,-0.1379,-0.4700,-0.0073,0.4133,-0.0075,-0.2791,850.1765,19.9800,31.0800,-11.8200,-117.574,69.639,24.236,49.17439401,-121.67813885,0.00000000,
8.7990,-0.1344,-0.8820,0.2985,-0.1379,-0.4700,-0.0073,0.5742,-0.1875,-0.3206,850.1765,19.9800,31.0800,-11.8200,-117.574,69.639,24.236,49.17439401,-121.67813885,0.00000000,
8.8220,-0.1344,-0.8820,0.2985,0.4474,0.3920,-0.4533,0.5742,-0.1875,-0.3206,850.1765,19.9800,31.0800,-11.8200,-117.574,69.639,24.236,49.17439401,-121.67813885,0.00000000,
8.8470,-0.1808,-0.9020,0.3684,0.4474,0.3920,-0.4533,0.5742,-0.1875,-0.3206,850.1765,19.9800,31.0800,-11.8200,-110.672,65.540,26.142,49.17439401,-121.67813885,0.00000000,
8.8490,-0.1808,-0.9020,0.3684,0.4474,0.3920,-0.4533,0.5742,-0.1875,-0.3206,850.1765,19.8000,31.1400,-12.1800,-111.946,65.540,26.142,49.17439401,-121.67813885,0.00000000,
8.8500,-0.1808,-0.9020,0.3684,0.4474,0.3920,-0.4533,0.5017,-0.0692,-0.3547,850.1765,19.8000,31.1400,-12.1800,-111.946,65.540,26.142,49.17439401,-121.67813885,0.00000000,
8.8840,-0.1808,-0.9020,0.3684,-0.2525,0.1709,0.0510,0.5017,-0.0692,-0.3547,850.1765,19.8000,31.1400,-12.1800,-111.946,65.540,26.142,49.17439401,-121.67813885,0.00000000,
8.9080,0.1114,-0.7965,0.8081,-0.2525,0.1709,0.0510,0.5017,-0.0692,-0.3547,850.1765,19.8000,31.1400,-12.1800,-53.508,44.316,-7.849,49.17439401,-121.67813885,0.00000000,
8.9110,0.1114,-0.7965,0.8081,-0.2525,0.1709,0.0510,0.5017,-0.0692,-0.3547,850.1765,19.6200,31.1400,-12.5400,-53.808,44.316,-7.849,49.17439401,-121.67813885,0.00000000,
8.9140,0.1114,-0.7965,0.8081,-0.2525,0.1709,0.0510,0.4325,0.2088,-0.4911,850.1765,19.6200,31.1400,-12.5400,-53.808,44.316,-7.849,49.17439401,-121.67813885,0.00000000,
8.9240,0.1114,-0.7965,0.8081,-0.2525,0.1709,0.0510,0.4325,0.2088,-0.4911,850.1714,19.6200,31.1400,-12.5400,-53.808,44.316,-7.849,49.17439401,-121.67813885,0.00000000,
8.9270,0.1114,-0.7965,0.8081,-0.2525,0.1709,0.0510,0.4325,0.2088,-0.4911,850.1714,19.6200,31.1400,-12.5400,-53.808,44.316,-7.849,49.17439401,-121.67813885,0.00000000,
8.9430,0.1114,-0.7965,0.8081,2.4481,0.8618,3.5370,0.4325,0.2088,-0.4911,850.1714,19.6200,31.1400,-12.5400,-53.808,44.316,-7.849,49.17439401,-121.67813885,0.00000000,
8.9690,-0.7007,-0.0147,0.6410,2.4481,0.8618,3.5370,0.4325,0.2088,-0.4911,850.1714,19.6200,31.1400,-12.5400,-7.388,0.888,47.547,49.17439401,-121.67813885,0.00000000,
8.9710,-0.7007,-0.0147,0.6410,2.4481,0.8618,3.5370,0.4325,0.2088,-0.4911,850.1714,19.3200,31.1400,-13.0200,-6.367,0.888,47.547,49.17439401,-121.67813885,0.00000000,
8.9740,-0.7007,-0.0147,0.6410,2.4481,0.8618,3.5370,0.3100,-0.0266,-0.3814,850.1714,19.3200,31.1400,-13.0200,-6.367,0.888,47.547,49.17439401,-121.67813885,0.00000000,
9.0040,-0.7007,-0.0147,0.6410,-5.5798,8.5910,2.0145,0.3100,-0.0266,-0.3814,850.1714,19.3200,31.1400,-13.0200,-6.367,0.888,47.547,49.17439401,-121.67813885,0.00000000,
9.0270,-0.1998,-1.2221,-0.4550,-5.5798,8.5910,2.0145,0.3100,-0.0266,-0.3814,850.1714,19.3200,31.1400,-13.0200,55.809,67.873,156.286,49.17439401,-121.67813885,0.00000000,
9.0300,-0.1998,-1.2221,-0.4550,-5.5798,8.5910,2.0145,0.3100,-0.0266,-0.3814,850.1714,18.9600,31.1400,-13.5000,54.732,67.873,156.286,49.17439401,-121.67813885,0.00000000,
9.0450,-0.1998,-1.2221,-0.4550,-5.5798,8.5910,2.0145,-0.1172,-0.2141,-0.0320,850.1714,18.9600,31.1400,-13.5000,54.732,67.873,156.286,49.17439401,-121.67813885,0.00000000,
9.0620,-0.1998,-1.2221,-0.4550,-0.6299,-3.0298,-8.2485,-0.1172,-0.2141,-0.0320,850.1714,18.9600,31.1400,-13.5000,54.732,67.873,156.286,49.17439401,-121.67813885,0.00000000,
