time,gFx,gFy,gFz,ax,ay,az,wx,wy,wz,p,Bx,By,Bz,Azimuth,Pitch,Roll,Latitude,Longitude,Speed (m/s)
0.01,0.2922,0.4744,0.5941,0.2904,0.0992,-0.8777,0.1598,0.0884,0.1353,850.3623,22.02,-35.64,-27.6,-122.318,-35.623,-26.189,0,0,0
0.011,0.2922,0.4744,0.5941,0.2904,0.0992,-0.8777,0.1598,0.0884,0.1353,850.3623,21.84,-35.7,-27.6,-122.453,-35.623,-26.189,0,0,0
0.012,0.2922,0.4744,0.5941,0.2904,0.0992,-0.8777,0.2823,0.3984,0.0959,850.3623,21.84,-35.7,-27.6,-122.453,-35.623,-26.189,0,0,0
0.041,0.2922,0.4744,0.5941,0.232,-0.273,-2.2414,0.2823,0.3984,0.0959,850.3623,21.84,-35.7,-27.6,-122.453,-35.623,-26.189,0,0,0
0.058,0.2248,0.4998,0.6767,0.232,-0.273,-2.2414,0.2823,0.3984,0.0959,850.3623,21.84,-35.7,-27.6,-121.667,-35.028,-18.374,0,0,0
0.059,0.2248,0.4998,0.6767,0.232,-0.273,-2.2414,0.2823,0.3984,0.0959,850.3623,21.6,-35.7,-27.54,-121.868,-35.028,-18.374,0,0,0
0.061,0.2248,0.4998,0.6767,0.232,-0.273,-2.2414,-0.2631,0.4474,0.2961,850.3623,21.6,-35.7,-27.54,-121.868,-35.028,-18.374,0,0,0
0.077,0.2248,0.4998,0.6767,0.232,-0.273,-2.2414,-0.2631,0.4474,0.2961,850.3416,21.6,-35.7,-27.54,-121.868,-35.028,-18.374,0,0,0
0.079,0.2248,0.4998,0.6767,0.232,-0.273,-2.2414,-0.2631,0.4474,0.2961,850.3416,21.6,-35.7,-27.54,-121.868,-35.028,-18.374,0,0,0
0.097,0.2248,0.4998,0.6767,-0.3045,0.0728,-1.5297,-0.2631,0.4474,0.2961,850.3416,21.6,-35.7,-27.54,-121.868,-35.028,-18.374,0,0,0
0.14,0.1647,0.5325,1.1198,-0.3045,0.0728,-1.5297,-0.2631,0.4474,0.2961,850.3416,21.6,-35.7,-27.54,-130.977,-25.196,-8.365,0,0,0
0.142,0.1647,0.5325,1.1198,-0.3045,0.0728,-1.5297,-0.2631,0.4474,0.2961,850.3416,21.42,-35.76,-27.54,-131.232,-25.196,-8.365,0,0,0
0.143,0.1647,0.5325,1.1198,-0.3045,0.0728,-1.5297,-0.5465,1.3848,1.2219,850.3416,21.42,-35.76,-27.54,-131.232,-25.196,-8.365,0,0,0
0.158,0.1647,0.5325,1.1198,-0.5194,0.8287,2.4687,-0.5465,1.3848,1.2219,850.3416,21.42,-35.76,-27.54,-131.232,-25.196,-8.365,0,0,0
0.179,0.2389,0.3293,0.8511,-0.5194,0.8287,2.4687,-0.5465,1.3848,1.2219,850.3416,21.42,-35.76,-27.54,-133.114,-20.429,-15.681,0,0,0
0.181,0.2389,0.3293,0.8511,-0.5194,0.8287,2.4687,-0.5465,1.3848,1.2219,850.3416,21.24,-35.82,-27.48,-133.372,-20.429,-15.681,0,0,0
0.182,0.2389,0.3293,0.8511,-0.5194,0.8287,2.4687,1.1047,2.6291,2.105,850.3416,21.24,-35.82,-27.48,-133.372,-20.429,-15.681,0,0,0
0.22,0.2389,0.3293,0.8511,0.997,-1.4394,-0.1791,1.1047,2.6291,2.105,850.3416,21.24,-35.82,-27.48,-133.372,-20.429,-15.681,0,0,0
0.242,0.2028,0.4099,0.7871,0.997,-1.4394,-0.1791,1.1047,2.6291,2.105,850.3416,21.24,-35.82,-27.48,-129.226,-26.761,-14.447,0,0,0
0.244,0.2028,0.4099,0.7871,0.997,-1.4394,-0.1791,1.1047,2.6291,2.105,850.3416,21.06,-35.88,-27.42,-129.495,-26.761,-14.447,0,0,0
0.245,0.2028,0.4099,0.7871,0.997,-1.4394,-0.1791,-0.3015,1.4466,1.8109,850.3416,21.06,-35.88,-27.42,-129.495,-26.761,-14.447,0,0,0
0.256,0.2028,0.4099,0.7871,0.997,-1.4394,-0.1791,-0.3015,1.4466,1.8109,850.0981,21.06,-35.88,-27.42,-129.495,-26.761,-14.447,0,0,0
0.257,0.2028,0.4099,0.7871,0.997,-1.4394,-0.1791,-0.3015,1.4466,1.8109,850.0981,21.06,-35.88,-27.42,-129.495,-26.761,-14.447,0,0,0
0.277,0.2028,0.4099,0.7871,0.9528,-0.4199,-0.9707,-0.3015,1.4466,1.8109,850.0981,21.06,-35.88,-27.42,-129.495,-26.761,-14.447,0,0,0
0.297,0.1666,0.3043,0.9654,0.9528,-0.4199,-0.9707,-0.3015,1.4466,1.8109,850.0981,21.06,-35.88,-27.42,-137.058,-17.257,-9.792,0,0,0
0.3,0.1666,0.3043,0.9654,0.9528,-0.4199,-0.9707,-0.3015,1.4466,1.8109,850.0981,20.88,-36,-27.42,-137.368,-17.257,-9.792,0,0,0
0.304,0.1666,0.3043,0.9654,0.9528,-0.4199,-0.9707,-0.8064,0.1917,0.3345,850.0981,20.88,-36,-27.42,-137.368,-17.257,-9.792,0,0,0
0.337,0.1666,0.3043,0.9654,0.5591,-0.9014,0.5208,-0.8064,0.1917,0.3345,850.0981,20.88,-36,-27.42,-137.368,-17.257,-9.792,0,0,0
0.358,0.0987,0.3429,0.9821,0.5591,-0.9014,0.5208,-0.8064,0.1917,0.3345,850.0981,20.88,-36,-27.42,-137.58,-19.16,-5.739,0,0,0
0.361,0.0987,0.3429,0.9821,0.5591,-0.9014,0.5208,-0.8064,0.1917,0.3345,850.0981,20.76,-36.06,-27.36,-137.812,-19.16,-5.739,0,0,0
0.362,0.0987,0.3429,0.9821,0.5591,-0.9014,0.5208,0.0117,0.3143,0.3025,850.0981,20.76,-36.06,-27.36,-137.812,-19.16,-5.739,0,0,0
0.396,0.0987,0.3429,0.9821,0.0348,-0.4532,0.6378,0.0117,0.3143,0.3025,850.0981,20.76,-36.06,-27.36,-137.812,-19.16,-5.739,0,0,0
0.419,0.0332,0.3444,0.9356,0.0348,-0.4532,0.6378,0.0117,0.3143,0.3025,850.0981,20.76,-36.06,-27.36,-138.626,-20.197,-2.034,0,0,0
0.421,0.0332,0.3444,0.9356,0.0348,-0.4532,0.6378,0.0117,0.3143,0.3025,850.0981,20.64,-36.12,-27.36,-138.847,-20.197,-2.034,0,0,0
0.423,0.0332,0.3444,0.9356,0.0348,-0.4532,0.6378,0.3419,-0.1662,-0.3398,850.0981,20.64,-36.12,-27.36,-138.847,-20.197,-2.034,0,0,0
0.436,0.0332,0.3444,0.9356,0.0348,-0.4532,0.6378,0.3419,-0.1662,-0.3398,850.1423,20.64,-36.12,-27.36,-138.847,-20.197,-2.034,0,0,0
0.438,0.0332,0.3444,0.9356,0.0348,-0.4532,0.6378,0.3419,-0.1662,-0.3398,850.1423,20.64,-36.12,-27.36,-138.847,-20.197,-2.034,0,0,0
0.457,0.0332,0.3444,0.9356,-0.5627,-0.5595,0.2306,0.3419,-0.1662,-0.3398,850.1423,20.64,-36.12,-27.36,-138.847,-20.197,-2.034,0,0,0
0.478,-0.0366,0.5384,0.7817,-0.5627,-0.5595,0.2306,0.3419,-0.1662,-0.3398,850.1423,20.64,-36.12,-27.36,-125.357,-34.527,2.684,0,0,0
0.48,-0.0366,0.5384,0.7817,-0.5627,-0.5595,0.2306,0.3419,-0.1662,-0.3398,850.1423,20.58,-36.24,-27.36,-125.639,-34.527,2.684,0,0,0
0.482,-0.0366,0.5384,0.7817,-0.5627,-0.5595,0.2306,0.3494,0.1374,-0.2013,850.1423,20.58,-36.24,-27.36,-125.639,-34.527,2.684,0,0,0
0.52,-0.0366,0.5384,0.7817,-1.0456,0.9949,-1.1351,0.3494,0.1374,-0.2013,850.1423,20.58,-36.24,-27.36,-125.639,-34.527,2.684,0,0,0
0.54,0.0352,0.3864,0.8838,-1.0456,0.9949,-1.1351,0.3494,0.1374,-0.2013,850.1423,20.58,-36.24,-27.36,-136.218,-23.599,-2.279,0,0,0
0.543,0.0352,0.3864,0.8838,-1.0456,0.9949,-1.1351,0.3494,0.1374,-0.2013,850.1423,20.58,-36.3,-27.3,-136.321,-23.599,-2.279,0,0,0
0.546,0.0352,0.3864,0.8838,-1.0456,0.9949,-1.1351,-0.3558,-0.7265,-0.3324,850.1423,20.58,-36.3,-27.3,-136.321,-23.599,-2.279,0,0,0
0.576,0.0352,0.3864,0.8838,-0.5481,-0.3554,-0.1822,-0.3558,-0.7265,-0.3324,850.1423,20.58,-36.3,-27.3,-136.321,-23.599,-2.279,0,0,0
0.606,0.0982,0.2667,0.8951,-0.5481,-0.3554,-0.1822,-0.3558,-0.7265,-0.3324,850.1423,20.58,-36.3,-27.3,-139.804,-16.5,-6.262,0,0,0
0.615,0.0982,0.2667,0.8951,-0.5481,-0.3554,-0.1822,-0.3558,-0.7265,-0.3324,850.1423,20.7,-36.42,-27.36,-139.756,-16.5,-6.262,0,0,0
0.621,0.0982,0.2667,0.8951,-0.5481,-0.3554,-0.1822,0.0021,-0.6285,0.1395,850.1423,20.7,-36.42,-27.36,-139.756,-16.5,-6.262,0,0,0
0.625,0.0982,0.2667,0.8951,-0.5481,-0.3554,-0.1822,0.0021,-0.6285,0.1395,850.1787,20.7,-36.42,-27.36,-139.756,-16.5,-6.262,0,0,0
0.639,0.0982,0.2667,0.8951,-0.5481,-0.3554,-0.1822,0.0021,-0.6285,0.1395,850.1787,20.7,-36.42,-27.36,-139.756,-16.5,-6.262,0,0,0
0.642,0.0982,0.2667,0.8951,-0.1499,-1.4014,-0.1058,0.0021,-0.6285,0.1395,850.1787,20.7,-36.42,-27.36,-139.756,-16.5,-6.262,0,0,0
0.661,0.1085,0.4407,0.8394,-0.1499,-1.4014,-0.1058,0.0021,-0.6285,0.1395,850.1787,20.7,-36.42,-27.36,-131.14,-27.504,-7.363,0,0,0
0.665,0.1085,0.4407,0.8394,-0.1499,-1.4014,-0.1058,0.0021,-0.6285,0.1395,850.1787,20.82,-36.48,-27.36,-131.082,-27.504,-7.363,0,0,0
0.669,0.1085,0.4407,0.8394,-0.1499,-1.4014,-0.1058,-0.1619,-1.1601,0.6583,850.1787,20.82,-36.48,-27.36,-131.082,-27.504,-7.363,0,0,0
0.699,0.1085,0.4407,0.8394,-0.7439,0.3434,-0.555,-0.1619,-1.1601,0.6583,850.1787,20.82,-36.48,-27.36,-131.082,-27.504,-7.363,0,0,0
0.723,0.2507,0.4407,0.9464,-0.7439,0.3434,-0.555,-0.1619,-1.1601,0.6583,850.1787,20.82,-36.48,-27.36,-132.196,-24.233,-14.835,0,0,0
0.727,0.2507,0.4407,0.9464,-0.7439,0.3434,-0.555,-0.1619,-1.1601,0.6583,850.1787,20.94,-36.6,-27.36,-132.216,-24.233,-14.835,0,0,0
0.732,0.2507,0.4407,0.9464,-0.7439,0.3434,-0.555,-0.5752,-1.6544,0.9811,850.1787,20.94,-36.6,-27.36,-132.216,-24.233,-14.835,0,0,0
0.759,0.2507,0.4407,0.9464,-0.2806,0.7735,0.5503,-0.5752,-1.6544,0.9811,850.1787,20.94,-36.6,-27.36,-132.216,-24.233,-14.835,0,0,0
0.79,0.4212,0.3073,0.9132,-0.2806,0.7735,0.5503,-0.5752,-1.6544,0.9811,850.1787,20.94,-36.6,-27.36,-134.841,-16.991,-24.761,0,0,0
0.797,0.4212,0.3073,0.9132,-0.2806,0.7735,0.5503,-0.5752,-1.6544,0.9811,850.1787,20.88,-36.6,-27.42,-134.846,-16.991,-24.761,0,0,0
0.802,0.4212,0.3073,0.9132,-0.2806,0.7735,0.5503,-0.2898,-1.4935,0.5997,850.1787,20.88,-36.6,-27.42,-134.846,-16.991,-24.761,0,0,0
0.804,0.4212,0.3073,0.9132,-0.2806,0.7735,0.5503,-0.2898,-1.4935,0.5997,850.0984,20.88,-36.6,-27.42,-134.846,-16.991,-24.761,0,0,0
0.805,0.4212,0.3073,0.9132,-0.2806,0.7735,0.5503,-0.2898,-1.4935,0.5997,850.0984,20.88,-36.6,-27.42,-134.846,-16.991,-24.761,0,0,0
0.816,0.4212,0.3073,0.9132,0.4301,-0.1991,0.4523,-0.2898,-1.4935,0.5997,850.0984,20.88,-36.6,-27.42,-134.846,-16.991,-24.761,0,0,0
0.837,0.3288,0.2877,0.8477,0.4301,-0.1991,0.4523,-0.2898,-1.4935,0.5997,850.0984,20.88,-36.6,-27.42,-135.074,-17.56,-21.202,0,0,0
0.839,0.3288,0.2877,0.8477,0.4301,-0.1991,0.4523,-0.2898,-1.4935,0.5997,850.0984,20.4,-36.48,-27.48,-135.314,-17.56,-21.202,0,0,0
0.84,0.3288,0.2877,0.8477,0.4301,-0.1991,0.4523,0.4314,-0.7244,-0.1928,850.0984,20.4,-36.48,-27.48,-135.314,-17.56,-21.202,0,0,0
0.877,0.3288,0.2877,0.8477,-0.7654,-0.63,0.0389,0.4314,-0.7244,-0.1928,850.0984,20.4,-36.48,-27.48,-135.314,-17.56,-21.202,0,0,0
0.896,0.4989,0.213,0.749,-0.7654,-0.63,0.0389,0.4314,-0.7244,-0.1928,850.0984,20.4,-36.48,-27.48,-135.55,-13.315,-33.666,0,0,0
0.898,0.4989,0.213,0.749,-0.7654,-0.63,0.0389,0.4314,-0.7244,-0.1928,850.0984,19.68,-36.42,-27.54,-135.916,-13.315,-33.666,0,0,0
0.9,0.4989,0.213,0.749,-0.7654,-0.63,0.0389,-0.4378,-0.6999,0.9683,850.0984,19.68,-36.42,-27.54,-135.916,-13.315,-33.666,0,0,0
0.937,0.4989,0.213,0.749,0.3409,-1.018,-0.7744,-0.4378,-0.6999,0.9683,850.0984,19.68,-36.42,-27.54,-135.916,-13.315,-33.666,0,0,0
0.961,0.7544,-0.0133,0.6454,0.3409,-1.018,-0.7744,-0.4378,-0.6999,0.9683,850.0984,19.68,-36.42,-27.54,-137.232,0.765,-49.453,0,0,0
0.965,0.7544,-0.0133,0.6454,0.3409,-1.018,-0.7744,-0.4378,-0.6999,0.9683,850.0984,18.84,-36.3,-27.66,-137.534,0.765,-49.453,0,0,0
0.969,0.7544,-0.0133,0.6454,0.3409,-1.018,-0.7744,-1.4807,-0.2876,1.0195,850.0984,18.84,-36.3,-27.66,-137.534,0.765,-49.453,0,0,0
0.977,0.7544,-0.0133,0.6454,0.3409,-1.018,-0.7744,-1.4807,-0.2876,1.0195,850.2422,18.84,-36.3,-27.66,-137.534,0.765,-49.453,0,0,0
0.982,0.7544,-0.0133,0.6454,0.3409,-1.018,-0.7744,-1.4807,-0.2876,1.0195,850.2422,18.84,-36.3,-27.66,-137.534,0.765,-49.453,0,0,0
1.001,0.7544,-0.0133,0.6454,2.3836,-2.1176,-1.868,-1.4807,-0.2876,1.0195,850.2422,18.84,-36.3,-27.66,-137.534,0.765,-49.453,0,0,0
1.016,0.5629,-0.0533,0.9869,2.3836,-2.1176,-1.868,-1.4807,-0.2876,1.0195,850.2422,18.84,-36.3,-27.66,-140.862,2.687,-29.698,0,0,0
1.017,0.5629,-0.0533,0.9869,2.3836,-2.1176,-1.868,-1.4807,-0.2876,1.0195,850.2422,17.94,-36.18,-27.78,-141.471,2.687,-29.698,0,0,0
1.018,0.5629,-0.0533,0.9869,2.3836,-2.1176,-1.868,-1.7534,1.4392,0.2258,850.2422,17.94,-36.18,-27.78,-141.471,2.687,-29.698,0,0,0
1.054,0.5629,-0.0533,0.9869,1.0875,-1.4279,0.9693,-1.7534,1.4392,0.2258,850.2422,17.94,-36.18,-27.78,-141.471,2.687,-29.698,0,0,0
1.076,0.4622,-0.0079,0.919,1.0875,-1.4279,0.9693,-1.7534,1.4392,0.2258,850.2422,17.94,-36.18,-27.78,-141.86,0.439,-26.7,0,0,0
1.077,0.4622,-0.0079,0.919,1.0875,-1.4279,0.9693,-1.7534,1.4392,0.2258,850.2422,16.98,-35.7,-27.96,-142.261,0.439,-26.7,0,0,0
1.078,0.4622,-0.0079,0.919,1.0875,-1.4279,0.9693,-2.008,1.7321,-0.2759,850.2422,16.98,-35.7,-27.96,-142.261,0.439,-26.7,0,0,0
1.114,0.4622,-0.0079,0.919,0.9367,-0.0595,-0.1183,-2.008,1.7321,-0.2759,850.2422,16.98,-35.7,-27.96,-142.261,0.439,-26.7,0,0,0
1.135,0.3132,0.0014,1.0123,0.9367,-0.0595,-0.1183,-2.008,1.7321,-0.2759,850.2422,16.98,-35.7,-27.96,-145.534,-0.076,-17.191,0,0,0
1.136,0.3132,0.0014,1.0123,0.9367,-0.0595,-0.1183,-2.008,1.7321,-0.2759,850.2422,16.08,-34.86,-28.38,-145.711,-0.076,-17.191,0,0,0
1.139,0.3132,0.0014,1.0123,0.9367,-0.0595,-0.1183,-1.5915,2.5151,-0.6083,850.2422,16.08,-34.86,-28.38,-145.711,-0.076,-17.191,0,0,0
1.155,0.3132,0.0014,1.0123,0.9367,-0.0595,-0.1183,-1.5915,2.5151,-0.6083,850.1709,16.08,-34.86,-28.38,-145.711,-0.076,-17.191,0,0,0
1.157,0.3132,0.0014,1.0123,0.9367,-0.0595,-0.1183,-1.5915,2.5151,-0.6083,850.1709,16.08,-34.86,-28.38,-145.711,-0.076,-17.191,0,0,0
1.175,0.3132,0.0014,1.0123,0.8742,0.8677,0.4014,-1.5915,2.5151,-0.6083,850.1709,16.08,-34.86,-28.38,-145.711,-0.076,-17.191,0,0,0
1.199,0.0616,-0.1657,0.9547,0.8742,0.8677,0.4014,-1.5915,2.5151,-0.6083,850.1709,16.08,-34.86,-28.38,-155.382,9.826,-3.69,0,0,0
1.2,0.0616,-0.1657,0.9547,0.8742,0.8677,0.4014,-1.5915,2.5151,-0.6083,850.1709,15.54,-33.6,-29.04,-155.359,9.826,-3.69,0,0,0
1.202,0.0616,-0.1657,0.9547,0.8742,0.8677,0.4014,-1.192,0.555,-0.7446,850.1709,15.54,-33.6,-29.04,-155.359,9.826,-3.69,0,0,0
1.235,0.0616,-0.1657,0.9547,-1.1436,-0.2148,-0.1904,-1.192,0.555,-0.7446,850.1709,15.54,-33.6,-29.04,-155.359,9.826,-3.69,0,0,0
1.258,0.0132,-0.1506,1.22,-1.1436,-0.2148,-0.1904,-1.192,0.555,-0.7446,850.1709,15.54,-33.6,-29.04,-156.741,7.035,-0.62,0,0,0
1.26,0.0132,-0.1506,1.22,-1.1436,-0.2148,-0.1904,-1.192,0.555,-0.7446,850.1709,15.18,-32.1,-29.7,-156.398,7.035,-0.62,0,0,0
1.264,0.0132,-0.1506,1.22,-1.1436,-0.2148,-0.1904,-0.5188,-0.1523,-0.637,850.1709,15.18,-32.1,-29.7,-156.398,7.035,-0.62,0,0,0
1.294,0.0132,-0.1506,1.22,-1.6875,0.2559,2.4759,-0.5188,-0.1523,-0.637,850.1709,15.18,-32.1,-29.7,-156.398,7.035,-0.62,0,0,0
1.317,0.0205,-0.1936,0.7744,-1.6875,0.2559,2.4759,-0.5188,-0.1523,-0.637,850.1709,15.18,-32.1,-29.7,-157.345,14.028,-1.518,0,0,0
1.318,0.0205,-0.1936,0.7744,-1.6875,0.2559,2.4759,-0.5188,-0.1523,-0.637,850.1709,14.88,-30.48,-30.42,-156.947,14.028,-1.518,0,0,0
1.32,0.0205,-0.1936,0.7744,-1.6875,0.2559,2.4759,-0.4133,1.3699,-0.6147,850.1709,14.88,-30.48,-30.42,-156.947,14.028,-1.518,0,0,0
1.334,0.0205,-0.1936,0.7744,-1.6875,0.2559,2.4759,-0.4133,1.3699,-0.6147,850.1753,14.88,-30.48,-30.42,-156.947,14.028,-1.518,0,0,0
1.336,0.0205,-0.1936,0.7744,-1.6875,0.2559,2.4759,-0.4133,1.3699,-0.6147,850.1753,14.88,-30.48,-30.42,-156.947,14.028,-1.518,0,0,0
1.354,0.0205,-0.1936,0.7744,-1.0059,0.0279,-1.9509,-0.4133,1.3699,-0.6147,850.1753,14.88,-30.48,-30.42,-156.947,14.028,-1.518,0,0,0
1.377,-0.0073,-0.2839,0.685,-1.0059,0.0279,-1.9509,-0.4133,1.3699,-0.6147,850.1753,14.88,-30.48,-30.42,-159.944,22.515,0.613,0,0,0
1.379,-0.0073,-0.2839,0.685,-1.0059,0.0279,-1.9509,-0.4133,1.3699,-0.6147,850.1753,14.58,-28.74,-31.14,-159.71,22.515,0.613,0,0,0
1.381,-0.0073,-0.2839,0.685,-1.0059,0.0279,-1.9509,-1.5191,1.5638,-0.3324,850.1753,14.58,-28.74,-31.14,-159.71,22.515,0.613,0,0,0
1.415,-0.0073,-0.2839,0.685,-0.3601,0.0511,-2.6711,-1.5191,1.5638,-0.3324,850.1753,14.58,-28.74,-31.14,-159.71,22.515,0.613,0,0,0
1.436,-0.2487,-0.4725,0.6493,-0.3601,0.0511,-2.6711,-1.5191,1.5638,-0.3324,850.1753,14.58,-28.74,-31.14,-176.707,34.201,20.958,0,0,0
1.438,-0.2487,-0.4725,0.6493,-0.3601,0.0511,-2.6711,-1.5191,1.5638,-0.3324,850.1753,14.46,-26.76,-31.86,-177.111,34.201,20.958,0,0,0
1.439,-0.2487,-0.4725,0.6493,-0.3601,0.0511,-2.6711,-1.0567,1.7769,-0.5657,850.1753,14.46,-26.76,-31.86,-177.111,34.201,20.958,0,0,0
1.473,-0.2487,-0.4725,0.6493,-1.7689,-1.1351,-2.7748,-1.0567,1.7769,-0.5657,850.1753,14.46,-26.76,-31.86,-177.111,34.201,20.958,0,0,0
1.495,-0.1637,-0.3973,1.1384,-1.7689,-1.1351,-2.7748,-1.0567,1.7769,-0.5657,850.1753,14.46,-26.76,-31.86,-164.909,19.057,8.182,0,0,0
1.497,-0.1637,-0.3973,1.1384,-1.7689,-1.1351,-2.7748,-1.0567,1.7769,-0.5657,850.1753,14.88,-24.3,-32.64,-163.577,19.057,8.182,0,0,0
1.499,-0.1637,-0.3973,1.1384,-1.7689,-1.1351,-2.7748,-1.0674,0.9374,-0.4815,850.1753,14.88,-24.3,-32.64,-163.577,19.057,8.182,0,0,0
1.514,-0.1637,-0.3973,1.1384,-1.7689,-1.1351,-2.7748,-1.0674,0.9374,-0.4815,850.1948,14.88,-24.3,-32.64,-163.577,19.057,8.182,0,0,0
1.516,-0.1637,-0.3973,1.1384,-1.7689,-1.1351,-2.7748,-1.0674,0.9374,-0.4815,850.1948,14.88,-24.3,-32.64,-163.577,19.057,8.182,0,0,0
1.534,-0.1637,-0.3973,1.1384,-0.5822,0.2238,2.3148,-1.0674,0.9374,-0.4815,850.1948,14.88,-24.3,-32.64,-163.577,19.057,8.182,0,0,0
1.555,-0.2179,-0.4203,0.8775,-0.5822,0.2238,2.3148,-1.0674,0.9374,-0.4815,850.1948,14.88,-24.3,-32.64,-169.898,24.93,13.947,0,0,0
1.558,-0.2179,-0.4203,0.8775,-0.5822,0.2238,2.3148,-1.0674,0.9374,-0.4815,850.1948,15.42,-21.6,-33.3,-168.716,24.93,13.947,0,0,0
1.56,-0.2179,-0.4203,0.8775,-0.5822,0.2238,2.3148,-0.7446,0.816,-0.2514,850.1948,15.42,-21.6,-33.3,-168.716,24.93,13.947,0,0,0
1.594,-0.2179,-0.4203,0.8775,-0.7079,0.3587,-0.0079,-0.7446,0.816,-0.2514,850.1948,15.42,-21.6,-33.3,-168.716,24.93,13.947,0,0,0
1.618,-0.0884,-0.1828,1.1345,-0.7079,0.3587,-0.0079,-0.7446,0.816,-0.2514,850.1948,15.42,-21.6,-33.3,-154.481,9.126,4.457,0,0,0
1.619,-0.0884,-0.1828,1.1345,-0.7079,0.3587,-0.0079,-0.7446,0.816,-0.2514,850.1948,16.14,-18.78,-33.9,-150.825,9.126,4.457,0,0,0
1.621,-0.0884,-0.1828,1.1345,-0.7079,0.3587,-0.0079,-0.0735,0.5763,-0.2578,850.1948,16.14,-18.78,-33.9,-150.825,9.126,4.457,0,0,0
1.653,-0.0884,-0.1828,1.1345,0.716,2.6393,2.5138,-0.0735,0.5763,-0.2578,850.1948,16.14,-18.78,-33.9,-150.825,9.126,4.457,0,0,0
1.676,-0.1656,-0.2722,0.9014,0.716,2.6393,2.5138,-0.0735,0.5763,-0.2578,850.1948,16.14,-18.78,-33.9,-161.011,16.542,10.412,0,0,0
1.678,-0.1656,-0.2722,0.9014,0.716,2.6393,2.5138,-0.0735,0.5763,-0.2578,850.1948,16.98,-15.84,-34.5,-157.858,16.542,10.412,0,0,0
1.68,-0.1656,-0.2722,0.9014,0.716,2.6393,2.5138,0.1886,0.016,-0.3665,850.1948,16.98,-15.84,-34.5,-157.858,16.542,10.412,0,0,0
1.694,-0.1656,-0.2722,0.9014,0.716,2.6393,2.5138,0.1886,0.016,-0.3665,850.259,16.98,-15.84,-34.5,-157.858,16.542,10.412,0,0,0
1.696,-0.1656,-0.2722,0.9014,0.716,2.6393,2.5138,0.1886,0.016,-0.3665,850.259,16.98,-15.84,-34.5,-157.858,16.542,10.412,0,0,0
1.714,-0.1656,-0.2722,0.9014,-0.0365,1.5835,0.1404,0.1886,0.016,-0.3665,850.259,16.98,-15.84,-34.5,-157.858,16.542,10.412,0,0,0
1.735,-0.2555,-0.5414,0.8286,-0.0365,1.5835,0.1404,0.1886,0.016,-0.3665,850.259,16.98,-15.84,-34.5,-169.762,31.981,17.14,0,0,0
1.737,-0.2555,-0.5414,0.8286,-0.0365,1.5835,0.1404,0.1886,0.016,-0.3665,850.259,18.06,-12.9,-35.1,-167.63,31.981,17.14,0,0,0
1.739,-0.2555,-0.5414,0.8286,-0.0365,1.5835,0.1404,0.7201,-0.6242,-0.6317,850.259,18.06,-12.9,-35.1,-167.63,31.981,17.14,0,0,0
1.773,-0.2555,-0.5414,0.8286,-1.3285,-1.3373,-0.7697,0.7201,-0.6242,-0.6317,850.259,18.06,-12.9,-35.1,-167.63,31.981,17.14,0,0,0
1.795,-0.4104,-0.5454,0.9713,-1.3285,-1.3373,-0.7697,0.7201,-0.6242,-0.6317,850.259,18.06,-12.9,-35.1,-174.252,27.347,22.907,0,0,0
1.797,-0.4104,-0.5454,0.9713,-1.3285,-1.3373,-0.7697,0.7201,-0.6242,-0.6317,850.259,19.5,-10.08,-35.64,-171.548,27.347,22.907,0,0,0
1.798,-0.4104,-0.5454,0.9713,-1.3285,-1.3373,-0.7697,0.3696,-0.5582,-0.3356,850.259,19.5,-10.08,-35.64,-171.548,27.347,22.907,0,0,0
1.837,-0.4104,-0.5454,0.9713,-3.2106,-1.4637,0.5493,0.3696,-0.5582,-0.3356,850.259,19.5,-10.08,-35.64,-171.548,27.347,22.907,0,0,0
1.855,-0.1158,-0.4701,0.4099,-3.2106,-1.4637,0.5493,0.3696,-0.5582,-0.3356,850.259,19.5,-10.08,-35.64,-165.893,47.823,15.776,0,0,0
1.859,-0.1158,-0.4701,0.4099,-3.2106,-1.4637,0.5493,0.3696,-0.5582,-0.3356,850.259,21.24,-7.2,-36.12,-163.063,47.823,15.776,0,0,0
1.861,-0.1158,-0.4701,0.4099,-3.2106,-1.4637,0.5493,0.1108,0.7638,0.5039,850.259,21.24,-7.2,-36.12,-163.063,47.823,15.776,0,0,0
1.875,-0.1158,-0.4701,0.4099,-3.2106,-1.4637,0.5493,0.1108,0.7638,0.5039,850.3838,21.24,-7.2,-36.12,-163.063,47.823,15.776,0,0,0
1.877,-0.1158,-0.4701,0.4099,-3.2106,-1.4637,0.5493,0.1108,0.7638,0.5039,850.3838,21.24,-7.2,-36.12,-163.063,47.823,15.776,0,0,0
1.897,-0.1158,-0.4701,0.4099,0.3442,-0.7552,-4.8796,0.1108,0.7638,0.5039,850.3838,21.24,-7.2,-36.12,-163.063,47.823,15.776,0,0,0
1.916,-0.1427,-0.2991,1.0382,0.3442,-0.7552,-4.8796,0.1108,0.7638,0.5039,850.3838,21.24,-7.2,-36.12,-137.403,15.928,7.825,0,0,0
1.918,-0.1427,-0.2991,1.0382,0.3442,-0.7552,-4.8796,0.1108,0.7638,0.5039,850.3838,23.04,-4.38,-36.54,-130.054,15.928,7.825,0,0,0
1.92,-0.1427,-0.2991,1.0382,0.3442,-0.7552,-4.8796,-0.3899,0.5103,0.278,850.3838,23.04,-4.38,-36.54,-130.054,15.928,7.825,0,0,0
1.953,-0.1427,-0.2991,1.0382,0.4014,1.1329,1.4332,-0.3899,0.5103,0.278,850.3838,23.04,-4.38,-36.54,-130.054,15.928,7.825,0,0,0
1.978,-0.5551,-0.4071,0.7671,0.4014,1.1329,1.4332,-0.3899,0.5103,0.278,850.3838,23.04,-4.38,-36.54,172.543,23.265,35.89,0,0,0
1.979,-0.5551,-0.4071,0.7671,0.4014,1.1329,1.4332,-0.3899,0.5103,0.278,850.3838,24.9,-1.56,-36.9,175.608,23.265,35.89,0,0,0
1.981,-0.5551,-0.4071,0.7671,0.4014,1.1329,1.4332,-0.13,0.9119,0.1928,850.3838,24.9,-1.56,-36.9,175.608,23.265,35.89,0,0,0
2.013,-0.5551,-0.4071,0.7671,-3.1143,0.0315,-1.1197,-0.13,0.9119,0.1928,850.3838,24.9,-1.56,-36.9,175.608,23.265,35.89,0,0,0
2.034,-0.321,-0.4403,0.9967,-3.1143,0.0315,-1.1197,-0.13,0.9119,0.1928,850.3838,24.9,-1.56,-36.9,-145.479,22.806,17.853,0,0,0
2.036,-0.321,-0.4403,0.9967,-3.1143,0.0315,-1.1197,-0.13,0.9119,0.1928,850.3838,26.94,0.9,-37.14,-138.429,22.806,17.853,0,0,0
2.037,-0.321,-0.4403,0.9967,-3.1143,0.0315,-1.1197,-0.7436,0.5965,1.1654,850.3838,26.94,0.9,-37.14,-138.429,22.806,17.853,0,0,0
2.051,-0.321,-0.4403,0.9967,-3.1143,0.0315,-1.1197,-0.7436,0.5965,1.1654,850.1719,26.94,0.9,-37.14,-138.429,22.806,17.853,0,0,0
2.054,-0.321,-0.4403,0.9967,-3.1143,0.0315,-1.1197,-0.7436,0.5965,1.1654,850.1719,26.94,0.9,-37.14,-138.429,22.806,17.853,0,0,0
2.072,-0.321,-0.4403,0.9967,-0.1321,-0.1106,1.4364,-0.7436,0.5965,1.1654,850.1719,26.94,0.9,-37.14,-138.429,22.806,17.853,0,0,0
2.094,-0.1896,-0.3831,0.9527,-0.1321,-0.1106,1.4364,-0.7436,0.5965,1.1654,850.1719,26.94,0.9,-37.14,-127.015,21.525,11.254,0,0,0
2.096,-0.1896,-0.3831,0.9527,-0.1321,-0.1106,1.4364,-0.7436,0.5965,1.1654,850.1719,28.92,3,-37.08,-120.857,21.525,11.254,0,0,0
2.098,-0.1896,-0.3831,0.9527,-0.1321,-0.1106,1.4364,-0.3228,0.8916,0.9619,850.1719,28.92,3,-37.08,-120.857,21.525,11.254,0,0,0
2.133,-0.1896,-0.3831,0.9527,1.6536,0.3653,1.1597,-0.3228,0.8916,0.9619,850.1719,28.92,3,-37.08,-120.857,21.525,11.254,0,0,0
2.154,-0.2428,-0.1295,0.9566,1.6536,0.3653,1.1597,-0.3228,0.8916,0.9619,850.1719,28.92,3,-37.08,-97.915,7.477,14.243,0,0,0
2.156,-0.2428,-0.1295,0.9566,1.6536,0.3653,1.1597,-0.3228,0.8916,0.9619,850.1719,30.66,4.68,-36.66,-92.671,7.477,14.243,0,0,0
2.157,-0.2428,-0.1295,0.9566,1.6536,0.3653,1.1597,-0.3569,0.2162,0.7659,850.1719,30.66,4.68,-36.66,-92.671,7.477,14.243,0,0,0
2.192,-0.2428,-0.1295,0.9566,1.4328,2.7309,1.2738,-0.3569,0.2162,0.7659,850.1719,30.66,4.68,-36.66,-92.671,7.477,14.243,0,0,0
2.213,-0.3132,-0.2761,1.0431,1.4328,2.7309,1.2738,-0.3569,0.2162,0.7659,850.1719,30.66,4.68,-36.66,-108.394,14.226,16.712,0,0,0
2.215,-0.3132,-0.2761,1.0431,1.4328,2.7309,1.2738,-0.3569,0.2162,0.7659,850.1719,32.4,6.12,-36.18,-103.293,14.226,16.712,0,0,0
2.216,-0.3132,-0.2761,1.0431,1.4328,2.7309,1.2738,0.0085,0.0107,0.3313,850.1719,32.4,6.12,-36.18,-103.293,14.226,16.712,0,0,0
2.231,-0.3132,-0.2761,1.0431,1.4328,2.7309,1.2738,0.0085,0.0107,0.3313,850.1794,32.4,6.12,-36.18,-103.293,14.226,16.712,0,0,0
2.233,-0.3132,-0.2761,1.0431,1.4328,2.7309,1.2738,0.0085,0.0107,0.3313,850.1794,32.4,6.12,-36.18,-103.293,14.226,16.712,0,0,0
2.253,-0.3132,-0.2761,1.0431,0.5838,1.1164,1.9635,0.0085,0.0107,0.3313,850.1794,32.4,6.12,-36.18,-103.293,14.226,16.712,0,0,0
2.274,-0.4422,-0.4437,0.4881,0.5838,1.1164,1.9635,0.0085,0.0107,0.3313,850.1794,32.4,6.12,-36.18,179.269,33.97,42.177,0,0,0
2.276,-0.4422,-0.4437,0.4881,0.5838,1.1164,1.9635,0.0085,0.0107,0.3313,850.1794,34.08,7.32,-35.58,-176.355,33.97,42.177,0,0,0
2.277,-0.4422,-0.4437,0.4881,0.5838,1.1164,1.9635,-0.2493,-0.0756,0.8938,850.1794,34.08,7.32,-35.58,-176.355,33.97,42.177,0,0,0
2.313,-0.4422,-0.4437,0.4881,-0.4046,-0.6112,-3.3881,-0.2493,-0.0756,0.8938,850.1794,34.08,7.32,-35.58,-176.355,33.97,42.177,0,0,0
2.334,-0.3352,-0.646,1.0939,-0.4046,-0.6112,-3.3881,-0.2493,-0.0756,0.8938,850.1794,34.08,7.32,-35.58,-124.552,29.45,17.035,0,0,0
2.336,-0.3352,-0.646,1.0939,-0.4046,-0.6112,-3.3881,-0.2493,-0.0756,0.8938,850.1794,35.82,8.46,-34.98,-120.675,29.45,17.035,0,0,0
2.337,-0.3352,-0.646,1.0939,-0.4046,-0.6112,-3.3881,-1.1814,-0.8234,0.6754,850.1794,35.82,8.46,-34.98,-120.675,29.45,17.035,0,0,0
2.374,-0.3352,-0.646,1.0939,0.9394,-2.128,2.9321,-1.1814,-0.8234,0.6754,850.1794,35.82,8.46,-34.98,-120.675,29.45,17.035,0,0,0
2.395,-0.4197,-0.538,0.8809,0.9394,-2.128,2.9321,-1.1814,-0.8234,0.6754,850.1794,35.82,8.46,-34.98,-131.464,28.871,25.476,0,0,0
2.397,-0.4197,-0.538,0.8809,0.9394,-2.128,2.9321,-1.1814,-0.8234,0.6754,850.1794,37.38,9.36,-34.32,-127.424,28.871,25.476,0,0,0
2.399,-0.4197,-0.538,0.8809,0.9394,-2.128,2.9321,-0.425,-0.9044,0.0075,850.1794,37.38,9.36,-34.32,-127.424,28.871,25.476,0,0,0
2.41,-0.4197,-0.538,0.8809,0.9394,-2.128,2.9321,-0.425,-0.9044,0.0075,850.1653,37.38,9.36,-34.32,-127.424,28.871,25.476,0,0,0
2.413,-0.4197,-0.538,0.8809,0.9394,-2.128,2.9321,-0.425,-0.9044,0.0075,850.1653,37.38,9.36,-34.32,-127.424,28.871,25.476,0,0,0
2.431,-0.4197,-0.538,0.8809,-0.6173,-0.8071,0.6324,-0.425,-0.9044,0.0075,850.1653,37.38,9.36,-34.32,-127.424,28.871,25.476,0,0,0
2.454,-0.4793,-0.8972,-0.0465,-0.6173,-0.8071,0.6324,-0.425,-0.9044,0.0075,850.1653,37.38,9.36,-34.32,123.96,61.774,95.539,0,0,0
2.456,-0.4793,-0.8972,-0.0465,-0.6173,-0.8071,0.6324,-0.425,-0.9044,0.0075,850.1653,38.34,9.78,-33.66,125.088,61.774,95.539,0,0,0
2.458,-0.4793,-0.8972,-0.0465,-0.6173,-0.8071,0.6324,-0.5007,-0.6477,0.5603,850.1653,38.34,9.78,-33.66,125.088,61.774,95.539,0,0,0
2.491,-0.4793,-0.8972,-0.0465,-1.2308,-4.2601,-8.4313,-0.5007,-0.6477,0.5603,850.1653,38.34,9.78,-33.66,125.088,61.774,95.539,0,0,0
2.514,-0.8863,-0.6802,0.9566,-1.2308,-4.2601,-8.4313,-0.5007,-0.6477,0.5603,850.1653,38.34,9.78,-33.66,-160.475,27.546,42.816,0,0,0
2.516,-0.8863,-0.6802,0.9566,-1.2308,-4.2601,-8.4313,-0.5007,-0.6477,0.5603,850.1653,39.06,10.02,-33.12,-157.221,27.546,42.816,0,0,0
2.518,-0.8863,-0.6802,0.9566,-1.2308,-4.2601,-8.4313,-1.942,-1.0258,0.294,850.1653,39.06,10.02,-33.12,-157.221,27.546,42.816,0,0,0
2.553,-0.8863,-0.6802,0.9566,-5.8757,-1.3788,1.6087,-1.942,-1.0258,0.294,850.1653,39.06,10.02,-33.12,-157.221,27.546,42.816,0,0,0
2.574,-0.0728,-0.7198,0.9048,-5.8757,-1.3788,1.6087,-1.942,-1.0258,0.294,850.1653,39.06,10.02,-33.12,-111.931,38.411,4.6,0,0,0
2.575,-0.0728,-0.7198,0.9048,-5.8757,-1.3788,1.6087,-1.942,-1.0258,0.294,850.1653,39.48,10.26,-32.64,-111.055,38.411,4.6,0,0,0
2.577,-0.0728,-0.7198,0.9048,-5.8757,-1.3788,1.6087,-0.6498,0.1214,0.3036,850.1653,39.48,10.26,-32.64,-111.055,38.411,4.6,0,0,0
2.59,-0.0728,-0.7198,0.9048,-5.8757,-1.3788,1.6087,-0.6498,0.1214,0.3036,850.1794,39.48,10.26,-32.64,-111.055,38.411,4.6,0,0,0
2.593,-0.0728,-0.7198,0.9048,-5.8757,-1.3788,1.6087,-0.6498,0.1214,0.3036,850.1794,39.48,10.26,-32.64,-111.055,38.411,4.6,0,0,0
2.61,-0.0728,-0.7198,0.9048,2.1324,-1.3635,1.4049,-0.6498,0.1214,0.3036,850.1794,39.48,10.26,-32.64,-111.055,38.411,4.6,0,0,0
2.632,-0.2033,-0.3782,0.7544,2.1324,-1.3635,1.4049,-0.6498,0.1214,0.3036,850.1794,39.48,10.26,-32.64,-106.852,25.834,15.08,0,0,0
2.633,-0.2033,-0.3782,0.7544,2.1324,-1.3635,1.4049,-0.6498,0.1214,0.3036,850.1794,39.66,10.5,-32.16,-105.993,25.834,15.08,0,0,0
2.637,-0.2033,-0.3782,0.7544,2.1324,-1.3635,1.4049,-0.1768,-0.0245,-0.1555,850.1794,39.66,10.5,-32.16,-105.993,25.834,15.08,0,0,0
2.671,-0.2033,-0.3782,0.7544,0.758,2.0345,-0.0668,-0.1768,-0.0245,-0.1555,850.1794,39.66,10.5,-32.16,-105.993,25.834,15.08,0,0,0
2.693,-1.0896,-0.9866,1.2762,0.758,2.0345,-0.0668,-0.1768,-0.0245,-0.1555,850.1794,39.66,10.5,-32.16,-150.491,30.452,40.49,0,0,0
2.695,-1.0896,-0.9866,1.2762,0.758,2.0345,-0.0668,-0.1768,-0.0245,-0.1555,850.1794,39.78,10.86,-31.74,-148.863,30.452,40.49,0,0,0
2.697,-1.0896,-0.9866,1.2762,0.758,2.0345,-0.0668,-0.2567,-1.0695,-0.4677,850.1794,39.78,10.86,-31.74,-148.863,30.452,40.49,0,0,0
2.732,-1.0896,-0.9866,1.2762,-8.2918,-3.7059,5.0956,-0.2567,-1.0695,-0.4677,850.1794,39.78,10.86,-31.74,-148.863,30.452,40.49,0,0,0
2.752,-0.1046,-0.6152,0.7553,-8.2918,-3.7059,5.0956,-0.2567,-1.0695,-0.4677,850.1794,39.78,10.86,-31.74,-112.773,38.897,7.882,0,0,0
2.754,-0.1046,-0.6152,0.7553,-8.2918,-3.7059,5.0956,-0.2567,-1.0695,-0.4677,850.1794,39.9,11.34,-31.32,-111.8,38.897,7.882,0,0,0
2.756,-0.1046,-0.6152,0.7553,-8.2918,-3.7059,5.0956,0.0256,0.5092,-0.4005,850.1794,39.9,11.34,-31.32,-111.8,38.897,7.882,0,0,0
2.769,-0.1046,-0.6152,0.7553,-8.2918,-3.7059,5.0956,0.0256,0.5092,-0.4005,850.1055,39.9,11.34,-31.32,-111.8,38.897,7.882,0,0,0
2.774,-0.1046,-0.6152,0.7553,-8.2918,-3.7059,5.0956,0.0256,0.5092,-0.4005,850.1055,39.9,11.34,-31.32,-111.8,38.897,7.882,0,0,0
2.79,-0.1046,-0.6152,0.7553,1.5116,-0.0028,0.0934,0.0256,0.5092,-0.4005,850.1055,39.9,11.34,-31.32,-111.8,38.897,7.882,0,0,0
2.812,0.0059,-0.7002,0.6659,1.5116,-0.0028,0.0934,0.0256,0.5092,-0.4005,850.1055,39.9,11.34,-31.32,-110.004,46.438,-0.504,0,0,0
2.814,0.0059,-0.7002,0.6659,1.5116,-0.0028,0.0934,0.0256,0.5092,-0.4005,850.1055,39.96,12,-30.96,-109.072,46.438,-0.504,0,0,0
2.815,0.0059,-0.7002,0.6659,1.5116,-0.0028,0.0934,-1.0077,-0.6349,-0.6392,850.1055,39.96,12,-30.96,-109.072,46.438,-0.504,0,0,0
2.85,0.0059,-0.7002,0.6659,2.02,-0.4029,-0.5869,-1.0077,-0.6349,-0.6392,850.1055,39.96,12,-30.96,-109.072,46.438,-0.504,0,0,0
2.873,-0.1388,-0.7911,0.5745,2.02,-0.4029,-0.5869,-1.0077,-0.6349,-0.6392,850.1055,39.96,12,-30.96,-127.744,53.236,13.578,0,0,0
2.875,-0.1388,-0.7911,0.5745,2.02,-0.4029,-0.5869,-1.0077,-0.6349,-0.6392,850.1055,39.9,12.78,-30.6,-126.85,53.236,13.578,0,0,0
2.876,-0.1388,-0.7911,0.5745,2.02,-0.4029,-0.5869,-0.3739,-0.8032,-1.0035,850.1055,39.9,12.78,-30.6,-126.85,53.236,13.578,0,0,0
2.915,-0.1388,-0.7911,0.5745,-0.4943,-0.8458,-1.2767,-0.3739,-0.8032,-1.0035,850.1055,39.9,12.78,-30.6,-126.85,53.236,13.578,0,0,0
2.936,-0.1168,-0.7515,0.7319,-0.4943,-0.8458,-1.2767,-0.3739,-0.8032,-1.0035,850.1055,39.9,12.78,-30.6,-116.204,45.4,9.066,0,0,0
2.939,-0.1168,-0.7515,0.7319,-0.4943,-0.8458,-1.2767,-0.3739,-0.8032,-1.0035,850.1055,39.66,13.68,-30.3,-115.153,45.4,9.066,0,0,0
2.942,-0.1168,-0.7515,0.7319,-0.4943,-0.8458,-1.2767,-0.2045,0.6786,-0.3473,850.1055,39.66,13.68,-30.3,-115.153,45.4,9.066,0,0,0
2.953,-0.1168,-0.7515,0.7319,-0.4943,-0.8458,-1.2767,-0.2045,0.6786,-0.3473,850.1055,39.66,13.68,-30.3,-115.153,45.4,9.066,0,0,0
2.957,-0.1168,-0.7515,0.7319,-0.4943,-0.8458,-1.2767,-0.2045,0.6786,-0.3473,850.1055,39.66,13.68,-30.3,-115.153,45.4,9.066,0,0,0
2.973,-0.1168,-0.7515,0.7319,0.9752,-0.2332,0.784,-0.2045,0.6786,-0.3473,850.1055,39.66,13.68,-30.3,-115.153,45.4,9.066,0,0,0
2.998,0.1192,-0.5815,0.8169,0.9752,-0.2332,0.784,-0.2045,0.6786,-0.3473,850.1055,39.66,13.68,-30.3,-93.651,35.16,-8.303,0,0,0
3.004,0.1192,-0.5815,0.8169,0.9752,-0.2332,0.784,-0.2045,0.6786,-0.3473,850.1055,39.24,14.7,-30.06,-92.451,35.16,-8.303,0,0,0
3.008,0.1192,-0.5815,0.8169,0.9752,-0.2332,0.784,-0.963,2.1774,1.2432,850.1055,39.24,14.7,-30.06,-92.451,35.16,-8.303,0,0,0
3.033,0.1192,-0.5815,0.8169,4.1621,1.4359,1.9803,-0.963,2.1774,1.2432,850.1055,39.24,14.7,-30.06,-92.451,35.16,-8.303,0,0,0
3.059,-0.1588,-0.5287,0.5433,4.1621,1.4359,1.9803,-0.963,2.1774,1.2432,850.1055,39.24,14.7,-30.06,-119.398,43.05,16.294,0,0,0
3.062,-0.1588,-0.5287,0.5433,4.1621,1.4359,1.9803,-0.963,2.1774,1.2432,850.1055,38.76,15.78,-29.88,-118.226,43.05,16.294,0,0,0
3.064,-0.1588,-0.5287,0.5433,4.1621,1.4359,1.9803,-0.3196,2.2818,0.6296,850.1055,38.76,15.78,-29.88,-118.226,43.05,16.294,0,0,0
3.093,-0.1588,-0.5287,0.5433,1.639,1.6532,-0.9405,-0.3196,2.2818,0.6296,850.1055,38.76,15.78,-29.88,-118.226,43.05,16.294,0,0,0
3.119,-0.2438,-0.8913,0.6425,1.639,1.6532,-0.9405,-0.3196,2.2818,0.6296,850.1055,38.76,15.78,-29.88,-132.365,52.368,20.782,0,0,0
3.123,-0.2438,-0.8913,0.6425,1.639,1.6532,-0.9405,-0.3196,2.2818,0.6296,850.1055,38.58,17.04,-29.64,-131.216,52.368,20.782,0,0,0
3.128,-0.2438,-0.8913,0.6425,1.639,1.6532,-0.9405,1.3209,0.5784,-0.6456,850.1055,38.58,17.04,-29.64,-131.216,52.368,20.782,0,0,0
3.132,-0.2438,-0.8913,0.6425,1.639,1.6532,-0.9405,1.3209,0.5784,-0.6456,850.1482,38.58,17.04,-29.64,-131.216,52.368,20.782,0,0,0
3.136,-0.2438,-0.8913,0.6425,1.639,1.6532,-0.9405,1.3209,0.5784,-0.6456,850.1482,38.58,17.04,-29.64,-131.216,52.368,20.782,0,0,0
3.151,-0.2438,-0.8913,0.6425,0.9732,-2.0301,-0.0214,1.3209,0.5784,-0.6456,850.1482,38.58,17.04,-29.64,-131.216,52.368,20.782,0,0,0
3.174,-0.1881,-0.5923,0.7803,0.9732,-2.0301,-0.0214,1.3209,0.5784,-0.6456,850.1482,38.58,17.04,-29.64,-106.007,36.424,13.555,0,0,0
3.177,-0.1881,-0.5923,0.7803,0.9732,-2.0301,-0.0214,1.3209,0.5784,-0.6456,850.1482,38.28,18.54,-29.4,-103.678,36.424,13.555,0,0,0
3.183,-0.1881,-0.5923,0.7803,0.9732,-2.0301,-0.0214,0.4346,0.2013,-0.0788,850.1482,38.28,18.54,-29.4,-103.678,36.424,13.555,0,0,0
3.211,-0.1881,-0.5923,0.7803,1.296,0.992,1.312,0.4346,0.2013,-0.0788,850.1482,38.28,18.54,-29.4,-103.678,36.424,13.555,0,0,0
3.237,-0.6963,-1.054,0.5814,1.296,0.992,1.312,0.4346,0.2013,-0.0788,850.1482,38.28,18.54,-29.4,-175.4,49.284,50.138,0,0,0
3.241,-0.6963,-1.054,0.5814,1.296,0.992,1.312,0.4346,0.2013,-0.0788,850.1482,37.98,20.1,-29.22,-175.28,49.284,50.138,0,0,0
3.246,-0.6963,-1.054,0.5814,1.296,0.992,1.312,-0.2908,0.1928,-0.4719,850.1482,37.98,20.1,-29.22,-175.28,49.284,50.138,0,0,0
3.277,-0.6963,-1.054,0.5814,-3.4591,-3.4718,-0.4528,-0.2908,0.1928,-0.4719,850.1482,37.98,20.1,-29.22,-175.28,49.284,50.138,0,0,0
3.295,-0.1153,-0.3128,0.6151,-3.4591,-3.4718,-0.4528,-0.2908,0.1928,-0.4719,850.1482,37.98,20.1,-29.22,-86.397,26.555,10.618,0,0,0
3.298,-0.1153,-0.3128,0.6151,-3.4591,-3.4718,-0.4528,-0.2908,0.1928,-0.4719,850.1482,37.5,21.6,-29.1,-83.757,26.555,10.618,0,0,0
3.3,-0.1153,-0.3128,0.6151,-3.4591,-3.4718,-0.4528,-0.1779,0.1545,0.6988,850.1482,37.5,21.6,-29.1,-83.757,26.555,10.618,0,0,0
3.308,-0.1153,-0.3128,0.6151,-3.4591,-3.4718,-0.4528,-0.1779,0.1545,0.6988,850.1255,37.5,21.6,-29.1,-83.757,26.555,10.618,0,0,0
3.31,-0.1153,-0.3128,0.6151,-3.4591,-3.4718,-0.4528,-0.1779,0.1545,0.6988,850.1255,37.5,21.6,-29.1,-83.757,26.555,10.618,0,0,0
3.331,-0.1153,-0.3128,0.6151,2.9374,3.532,0.0194,-0.1779,0.1545,0.6988,850.1255,37.5,21.6,-29.1,-83.757,26.555,10.618,0,0,0
3.349,-0.2634,-0.7906,0.6649,2.9374,3.532,0.0194,-0.1779,0.1545,0.6988,850.1255,37.5,21.6,-29.1,-123.22,47.868,21.607,0,0,0
3.351,-0.2634,-0.7906,0.6649,2.9374,3.532,0.0194,-0.1779,0.1545,0.6988,850.1255,37.02,23.16,-29.04,-121.6,47.868,21.607,0,0,0
3.353,-0.2634,-0.7906,0.6649,2.9374,3.532,0.0194,0.5124,2.465,0.7574,850.1255,37.02,23.16,-29.04,-121.6,47.868,21.607,0,0,0
3.389,-0.2634,-0.7906,0.6649,2.4337,-1.2444,1.157,0.5124,2.465,0.7574,850.1255,37.02,23.16,-29.04,-121.6,47.868,21.607,0,0,0
3.412,-0.6367,-0.7657,0.6205,2.4337,-1.2444,1.157,0.5124,2.465,0.7574,850.1255,37.02,23.16,-29.04,-158.778,40.739,45.738,0,0,0
3.417,-0.6367,-0.7657,0.6205,2.4337,-1.2444,1.157,0.5124,2.465,0.7574,850.1255,36.6,24.72,-28.92,-157.288,40.739,45.738,0,0,0
3.42,-0.6367,-0.7657,0.6205,2.4337,-1.2444,1.157,-0.4762,1.9143,0.5262,850.1255,36.6,24.72,-28.92,-157.288,40.739,45.738,0,0,0
3.451,-0.6367,-0.7657,0.6205,-0.9573,-0.989,0.9987,-0.4762,1.9143,0.5262,850.1255,36.6,24.72,-28.92,-157.288,40.739,45.738,0,0,0
3.475,-0.9083,-0.8268,0.4661,-0.9573,-0.989,0.9987,-0.4762,1.9143,0.5262,850.1255,36.6,24.72,-28.92,136.756,39.002,62.837,0,0,0
3.479,-0.9083,-0.8268,0.4661,-0.9573,-0.989,0.9987,-0.4762,1.9143,0.5262,850.1255,36.18,26.28,-28.74,131.795,39.002,62.837,0,0,0
3.482,-0.9083,-0.8268,0.4661,-0.9573,-0.989,0.9987,0.1214,-0.1683,-0.6509,850.1255,36.18,26.28,-28.74,131.795,39.002,62.837,0,0,0
3.491,-0.9083,-0.8268,0.4661,-0.9573,-0.989,0.9987,0.1214,-0.1683,-0.6509,850.1753,36.18,26.28,-28.74,131.795,39.002,62.837,0,0,0
3.497,-0.9083,-0.8268,0.4661,-0.9573,-0.989,0.9987,0.1214,-0.1683,-0.6509,850.1753,36.18,26.28,-28.74,131.795,39.002,62.837,0,0,0
3.511,-0.9083,-0.8268,0.4661,-3.5744,-1.6069,-0.4918,0.1214,-0.1683,-0.6509,850.1753,36.18,26.28,-28.74,131.795,39.002,62.837,0,0,0
3.536,-0.5888,-0.6743,0.4226,-3.5744,-1.6069,-0.4918,0.1214,-0.1683,-0.6509,850.1753,36.18,26.28,-28.74,169.539,42.937,54.332,0,0,0
3.539,-0.5888,-0.6743,0.4226,-3.5744,-1.6069,-0.4918,0.1214,-0.1683,-0.6509,850.1753,35.94,27.66,-28.56,168.444,42.937,54.332,0,0,0
3.542,-0.5888,-0.6743,0.4226,-3.5744,-1.6069,-0.4918,-0.4772,-0.2173,0.3196,850.1753,35.94,27.66,-28.56,168.444,42.937,54.332,0,0,0
3.573,-0.5888,-0.6743,0.4226,-0.3887,-0.1467,-0.9039,-0.4772,-0.2173,0.3196,850.1753,35.94,27.66,-28.56,168.444,42.937,54.332,0,0,0
3.595,-0.5795,-0.6616,0.4861,-0.3887,-0.1467,-0.9039,-0.4772,-0.2173,0.3196,850.1753,35.94,27.66,-28.56,-172.62,41.178,50.008,0,0,0
3.599,-0.5795,-0.6616,0.4861,-0.3887,-0.1467,-0.9039,-0.4772,-0.2173,0.3196,850.1753,35.7,28.92,-28.38,-171.72,41.178,50.008,0,0,0
3.603,-0.5795,-0.6616,0.4861,-0.3887,-0.1467,-0.9039,-0.4091,-0.3036,0.3111,850.1753,35.7,28.92,-28.38,-171.72,41.178,50.008,0,0,0
3.63,-0.5795,-0.6616,0.4861,-0.2908,0.0435,-0.1887,-0.4091,-0.3036,0.3111,850.1753,35.7,28.92,-28.38,-171.72,41.178,50.008,0,0,0
3.652,-0.5282,-0.6949,0.5213,-0.2908,0.0435,-0.1887,-0.4091,-0.3036,0.3111,850.1753,35.7,28.92,-28.38,-153.728,43.117,45.377,0,0,0
3.655,-0.5282,-0.6949,0.5213,-0.2908,0.0435,-0.1887,-0.4091,-0.3036,0.3111,850.1753,35.52,30,-28.14,-151.03,43.117,45.377,0,0,0
3.658,-0.5282,-0.6949,0.5213,-0.2908,0.0435,-0.1887,-0.4229,-0.1736,0.1694,850.1753,35.52,30,-28.14,-151.03,43.117,45.377,0,0,0
3.67,-0.5282,-0.6949,0.5213,-0.2908,0.0435,-0.1887,-0.4229,-0.1736,0.1694,850.1135,35.52,30,-28.14,-151.03,43.117,45.377,0,0,0
3.676,-0.5282,-0.6949,0.5213,-0.2908,0.0435,-0.1887,-0.4229,-0.1736,0.1694,850.1135,35.52,30,-28.14,-151.03,43.117,45.377,0,0,0
3.691,-0.5282,-0.6949,0.5213,0.2645,-0.2632,0.2391,-0.4229,-0.1736,0.1694,850.1135,35.52,30,-28.14,-151.03,43.117,45.377,0,0,0
3.718,-0.4852,-0.6724,0.4949,0.2645,-0.2632,0.2391,-0.4229,-0.1736,0.1694,850.1135,35.52,30,-28.14,-149.91,44.133,44.432,0,0,0
3.724,-0.4852,-0.6724,0.4949,0.2645,-0.2632,0.2391,-0.4229,-0.1736,0.1694,850.1135,35.4,30.96,-27.9,-147.175,44.133,44.432,0,0,0
3.728,-0.4852,-0.6724,0.4949,0.2645,-0.2632,0.2391,-0.3398,-0.017,0.3089,850.1135,35.4,30.96,-27.9,-147.175,44.133,44.432,0,0,0
3.753,-0.4852,-0.6724,0.4949,0.7707,-0.0134,0.1177,-0.3398,-0.017,0.3089,850.1135,35.4,30.96,-27.9,-147.175,44.133,44.432,0,0,0
3.777,-0.516,-0.7471,0.4026,0.7707,-0.0134,0.1177,-0.3398,-0.017,0.3089,850.1135,35.4,30.96,-27.9,179.059,48.785,52.039,0,0,0
3.782,-0.516,-0.7471,0.4026,0.7707,-0.0134,0.1177,-0.3398,-0.017,0.3089,850.1135,35.28,31.8,-27.66,179.522,48.785,52.039,0,0,0
3.786,-0.516,-0.7471,0.4026,0.7707,-0.0134,0.1177,-0.2589,0.1278,0.2056,850.1135,35.28,31.8,-27.66,179.522,48.785,52.039,0,0,0
3.813,-0.516,-0.7471,0.4026,0.4951,-0.6549,-0.6264,-0.2589,0.1278,0.2056,850.1135,35.28,31.8,-27.66,179.522,48.785,52.039,0,0,0
3.84,-0.4989,-0.7843,0.4221,0.4951,-0.6549,-0.6264,-0.2589,0.1278,0.2056,850.1135,35.28,31.8,-27.66,-173.217,50.198,49.765,0,0,0
3.847,-0.4989,-0.7843,0.4221,0.4951,-0.6549,-0.6264,-0.2589,0.1278,0.2056,850.1135,35.28,32.46,-27.36,-171.977,50.198,49.765,0,0,0
3.856,-0.4989,-0.7843,0.4221,0.4951,-0.6549,-0.6264,-0.2706,0.31,-0.049,850.1135,35.28,32.46,-27.36,-171.977,50.198,49.765,0,0,0
3.858,-0.4989,-0.7843,0.4221,0.4951,-0.6549,-0.6264,-0.2706,0.31,-0.049,850.1277,35.28,32.46,-27.36,-171.977,50.198,49.765,0,0,0
3.86,-0.4989,-0.7843,0.4221,0.4951,-0.6549,-0.6264,-0.2706,0.31,-0.049,850.1277,35.28,32.46,-27.36,-171.977,50.198,49.765,0,0,0
3.868,-0.4989,-0.7843,0.4221,0.6509,-0.942,-0.3355,-0.2706,0.31,-0.049,850.1277,35.28,32.46,-27.36,-171.977,50.198,49.765,0,0,0
3.889,-0.5321,-0.7374,0.4671,0.6509,-0.942,-0.3355,-0.2706,0.31,-0.049,850.1277,35.28,32.46,-27.36,-164.329,46.164,48.725,0,0,0
3.892,-0.5321,-0.7374,0.4671,0.6509,-0.942,-0.3355,-0.2706,0.31,-0.049,850.1277,35.52,33,-27.06,-161.551,46.164,48.725,0,0,0
3.893,-0.5321,-0.7374,0.4671,0.6509,-0.942,-0.3355,-0.0075,0.3057,-0.0309,850.1277,35.52,33,-27.06,-161.551,46.164,48.725,0,0,0
3.932,-0.5321,-0.7374,0.4671,0.3344,-0.3768,0.2801,-0.0075,0.3057,-0.0309,850.1277,35.52,33,-27.06,-161.551,46.164,48.725,0,0,0
3.957,-0.6059,-0.6861,0.4675,0.3344,-0.3768,0.2801,-0.0075,0.3057,-0.0309,850.1277,35.52,33,-27.06,-176.971,41.875,52.344,0,0,0
3.963,-0.6059,-0.6861,0.4675,0.3344,-0.3768,0.2801,-0.0075,0.3057,-0.0309,850.1277,35.88,33.36,-26.64,-170.554,41.875,52.344,0,0,0
3.967,-0.6059,-0.6861,0.4675,0.3344,-0.3768,0.2801,0.131,0.1342,-0.2738,850.1277,35.88,33.36,-26.64,-170.554,41.875,52.344,0,0,0
3.995,-0.6059,-0.6861,0.4675,-0.4764,0.2361,0.35,0.131,0.1342,-0.2738,850.1277,35.88,33.36,-26.64,-170.554,41.875,52.344,0,0,0
4.018,-0.6596,-0.7584,0.4509,-0.4764,0.2361,0.35,0.131,0.1342,-0.2738,850.1277,35.88,33.36,-26.64,165.082,43.505,55.643,0,0,0
4.023,-0.6596,-0.7584,0.4509,-0.4764,0.2361,0.35,0.131,0.1342,-0.2738,850.1277,36.18,33.72,-26.1,169.756,43.505,55.643,0,0,0
4.029,-0.6596,-0.7584,0.4509,-0.4764,0.2361,0.35,-0.0405,0.0298,-0.2631,850.1277,36.18,33.72,-26.1,169.756,43.505,55.643,0,0,0
4.033,-0.6596,-0.7584,0.4509,-0.4764,0.2361,0.35,-0.0405,0.0298,-0.2631,850.1865,36.18,33.72,-26.1,169.756,43.505,55.643,0,0,0
4.035,-0.6596,-0.7584,0.4509,-0.4764,0.2361,0.35,-0.0405,0.0298,-0.2631,850.1865,36.18,33.72,-26.1,169.756,43.505,55.643,0,0,0
4.048,-0.6596,-0.7584,0.4509,-1.0315,-0.4009,0.27,-0.0405,0.0298,-0.2631,850.1865,36.18,33.72,-26.1,169.756,43.505,55.643,0,0,0
4.069,-0.6298,-0.7252,0.4294,-1.0315,-0.4009,0.27,-0.0405,0.0298,-0.2631,850.1865,36.18,33.72,-26.1,169.378,43.57,55.713,0,0,0
4.07,-0.6298,-0.7252,0.4294,-1.0315,-0.4009,0.27,-0.0405,0.0298,-0.2631,850.1865,36.06,33.9,-25.62,171.795,43.57,55.713,0,0,0
4.073,-0.6298,-0.7252,0.4294,-1.0315,-0.4009,0.27,-0.0767,0.0629,-0.1992,850.1865,36.06,33.9,-25.62,171.795,43.57,55.713,0,0,0
4.11,-0.6298,-0.7252,0.4294,-0.7752,-0.0215,0.1043,-0.0767,0.0629,-0.1992,850.1865,36.06,33.9,-25.62,171.795,43.57,55.713,0,0,0
4.132,-0.5365,-0.7379,0.446,-0.7752,-0.0215,0.1043,-0.0767,0.0629,-0.1992,850.1865,36.06,33.9,-25.62,-159.051,46.603,50.26,0,0,0
4.137,-0.5365,-0.7379,0.446,-0.7752,-0.0215,0.1043,-0.0767,0.0629,-0.1992,850.1865,35.88,33.9,-25.26,-157.512,46.603,50.26,0,0,0
4.139,-0.5365,-0.7379,0.446,-0.7752,-0.0215,0.1043,-0.0501,0.0714,-0.0671,850.1865,35.88,33.9,-25.26,-157.512,46.603,50.26,0,0,0
4.168,-0.5365,-0.7379,0.446,0.2134,-0.146,0.3665,-0.0501,0.0714,-0.0671,850.1865,35.88,33.9,-25.26,-157.512,46.603,50.26,0,0,0
4.191,-0.4871,-0.6851,0.3962,0.2134,-0.146,0.3665,-0.0501,0.0714,-0.0671,850.1865,35.88,33.9,-25.26,-162.002,47.493,50.878,0,0,0
4.195,-0.4871,-0.6851,0.3962,0.2134,-0.146,0.3665,-0.0501,0.0714,-0.0671,850.1865,35.7,33.9,-24.84,-160.252,47.493,50.878,0,0,0
4.198,-0.4871,-0.6851,0.3962,0.2134,-0.146,0.3665,-0.1055,0.1225,0.0618,850.1865,35.7,33.9,-24.84,-160.252,47.493,50.878,0,0,0
4.208,-0.4871,-0.6851,0.3962,0.2134,-0.146,0.3665,-0.1055,0.1225,0.0618,850.1487,35.7,33.9,-24.84,-160.252,47.493,50.878,0,0,0
4.212,-0.4871,-0.6851,0.3962,0.2134,-0.146,0.3665,-0.1055,0.1225,0.0618,850.1487,35.7,33.9,-24.84,-160.252,47.493,50.878,0,0,0
4.228,-0.4871,-0.6851,0.3962,0.7295,0.3666,-0.0855,-0.1055,0.1225,0.0618,850.1487,35.7,33.9,-24.84,-160.252,47.493,50.878,0,0,0
4.25,-0.5345,-0.7051,0.3859,0.7295,0.3666,-0.0855,-0.1055,0.1225,0.0618,850.1487,35.7,33.9,-24.84,-174.965,46.923,54.17,0,0,0
4.255,-0.5345,-0.7051,0.3859,0.7295,0.3666,-0.0855,-0.1055,0.1225,0.0618,850.1487,35.58,33.9,-24.42,-172.984,46.923,54.17,0,0,0
4.258,-0.5345,-0.7051,0.3859,0.7295,0.3666,-0.0855,0.0511,0.0863,0.0447,850.1487,35.58,33.9,-24.42,-172.984,46.923,54.17,0,0,0
4.289,-0.5345,-0.7051,0.3859,0.1619,0.2195,-0.2392,0.0511,0.0863,0.0447,850.1487,35.58,33.9,-24.42,-172.984,46.923,54.17,0,0,0
4.315,-0.5492,-0.6934,0.4104,0.1619,0.2195,-0.2392,0.0511,0.0863,0.0447,850.1487,35.58,33.9,-24.42,-165.74,45.325,53.232,0,0,0
4.318,-0.5492,-0.6934,0.4104,0.1619,0.2195,-0.2392,0.0511,0.0863,0.0447,850.1487,35.46,33.84,-23.94,-162.755,45.325,53.232,0,0,0
4.321,-0.5492,-0.6934,0.4104,0.1619,0.2195,-0.2392,0.033,0.0735,0.0128,850.1487,35.46,33.84,-23.94,-162.755,45.325,53.232,0,0,0
4.349,-0.5492,-0.6934,0.4104,0.0735,0.3281,0.064,0.033,0.0735,0.0128,850.1487,35.46,33.84,-23.94,-162.755,45.325,53.232,0,0,0
4.37,-0.56,-0.6856,0.3654,0.0735,0.3281,0.064,0.033,0.0735,0.0128,850.1487,35.46,33.84,-23.94,174.539,45.717,56.872,0,0,0
4.376,-0.56,-0.6856,0.3654,0.0735,0.3281,0.064,0.033,0.0735,0.0128,850.1487,35.34,33.84,-23.4,177.592,45.717,56.872,0,0,0
4.38,-0.56,-0.6856,0.3654,0.0735,0.3281,0.064,-0.1065,0.2301,0.0479,850.1487,35.34,33.84,-23.4,177.592,45.717,56.872,0,0,0
4.387,-0.56,-0.6856,0.3654,0.0735,0.3281,0.064,-0.1065,0.2301,0.0479,850.188,35.34,33.84,-23.4,177.592,45.717,56.872,0,0,0
4.399,-0.56,-0.6856,0.3654,0.0735,0.3281,0.064,-0.1065,0.2301,0.0479,850.188,35.34,33.84,-23.4,177.592,45.717,56.872,0,0,0
4.417,-0.56,-0.6856,0.3654,0.0464,0.3313,-0.3993,-0.1065,0.2301,0.0479,850.188,35.34,33.84,-23.4,177.592,45.717,56.872,0,0,0
4.436,-0.6034,-0.7169,0.4001,0.0464,0.3313,-0.3993,-0.1065,0.2301,0.0479,850.188,35.34,33.84,-23.4,-179.732,44.715,56.453,49.17439857,-121.6781793,0.18000001
4.437,-0.6034,-0.7169,0.4001,0.0464,0.3313,-0.3993,-0.1065,0.2301,0.0479,850.188,35.22,33.84,-22.92,-176.258,44.715,56.453,49.17439857,-121.6781793,0.18000001
4.443,-0.6034,-0.7169,0.4001,0.0464,0.3313,-0.3993,-0.2131,0.3249,0.1523,850.188,35.22,33.84,-22.92,-176.258,44.715,56.453,49.17439857,-121.6781793,0.18000001
4.466,-0.6034,-0.7169,0.4001,-0.2809,-0.0095,0.0195,-0.2131,0.3249,0.1523,850.188,35.22,33.84,-22.92,-176.258,44.715,56.453,49.17439857,-121.6781793,0.18000001
4.502,-0.5516,-0.6724,0.3845,-0.2809,-0.0095,0.0195,-0.2131,0.3249,0.1523,850.188,35.22,33.84,-22.92,-166.972,44.999,55.125,49.17439857,-121.6781793,0.18000001
4.504,-0.5516,-0.6724,0.3845,-0.2809,-0.0095,0.0195,-0.2131,0.3249,0.1523,850.188,35.1,33.84,-22.44,-163.22,44.999,55.125,49.17439857,-121.6781793,0.18000001
4.505,-0.5516,-0.6724,0.3845,-0.2809,-0.0095,0.0195,-0.0895,0.0597,0.1694,850.188,35.1,33.84,-22.44,-163.22,44.999,55.125,49.17439857,-121.6781793,0.18000001
4.526,-0.5516,-0.6724,0.3845,0.2724,0.4322,-0.0558,-0.0895,0.0597,0.1694,850.188,35.1,33.84,-22.44,-163.22,44.999,55.125,49.17439857,-121.6781793,0.18000001
4.561,-0.5262,-0.7193,0.3429,0.2724,0.4322,-0.0558,-0.0895,0.0597,0.1694,850.188,35.1,33.84,-22.44,-177.714,48.871,56.908,49.17439857,-121.6781793,0.18000001
4.567,-0.5262,-0.7193,0.3429,0.2724,0.4322,-0.0558,-0.0895,0.0597,0.1694,850.188,35.04,33.84,-21.96,-175.281,48.871,56.908,49.17439857,-121.6781793,0.18000001
4.572,-0.5262,-0.7193,0.3429,0.2724,0.4322,-0.0558,0.033,-0.278,-0.0799,850.188,35.04,33.84,-21.96,-175.281,48.871,56.908,49.17439857,-121.6781793,0.18000001
4.575,-0.5262,-0.7193,0.3429,0.2724,0.4322,-0.0558,0.033,-0.278,-0.0799,850.1387,35.04,33.84,-21.96,-175.281,48.871,56.908,49.17439857,-121.6781793,0.18000001
4.578,-0.5262,-0.7193,0.3429,0.2724,0.4322,-0.0558,0.033,-0.278,-0.0799,850.1387,35.04,33.84,-21.96,-175.281,48.871,56.908,49.17439857,-121.6781793,0.18000001
4.586,-0.5262,-0.7193,0.3429,0.386,0.1543,-0.3208,0.033,-0.278,-0.0799,850.1387,35.04,33.84,-21.96,-175.281,48.871,56.908,49.17439857,-121.6781793,0.18000001
4.607,-0.4871,-0.7833,0.3986,0.386,0.1543,-0.3208,0.033,-0.278,-0.0799,850.1387,35.04,33.84,-21.96,-154.267,51.214,50.706,49.17439857,-121.6781793,0.18000001
4.609,-0.4871,-0.7833,0.3986,0.386,0.1543,-0.3208,0.033,-0.278,-0.0799,850.1387,34.98,33.84,-21.48,-152.245,51.214,50.706,49.17439857,-121.6781793,0.18000001
4.61,-0.4871,-0.7833,0.3986,0.386,0.1543,-0.3208,0.0543,-0.0905,-0.4048,850.1387,34.98,33.84,-21.48,-152.245,51.214,50.706,49.17439857,-121.6781793,0.18000001
4.646,-0.4871,-0.7833,0.3986,0.5675,-0.2906,0.289,0.0543,-0.0905,-0.4048,850.1387,34.98,33.84,-21.48,-152.245,51.214,50.706,49.17439857,-121.6781793,0.18000001
4.667,-0.5008,-0.7379,0.4421,0.5675,-0.2906,0.289,0.0543,-0.0905,-0.4048,850.1387,34.98,33.84,-21.48,-135.872,47.842,48.562,49.17439857,-121.6781793,0.18000001
4.669,-0.5008,-0.7379,0.4421,0.5675,-0.2906,0.289,0.0543,-0.0905,-0.4048,850.1387,34.98,33.84,-20.94,-133.209,47.842,48.562,49.17439857,-121.6781793,0.18000001
4.67,-0.5008,-0.7379,0.4421,0.5675,-0.2906,0.289,0.326,0.1321,-0.4432,850.1387,34.98,33.84,-20.94,-133.209,47.842,48.562,49.17439857,-121.6781793,0.18000001
4.707,-0.5008,-0.7379,0.4421,0.4312,0.2004,0.8065,0.326,0.1321,-0.4432,850.1387,34.98,33.84,-20.94,-133.209,47.842,48.562,49.17439857,-121.6781793,0.18000001
4.737,-0.5477,-0.6787,0.364,0.4312,0.2004,0.8065,0.326,0.1321,-0.4432,850.1387,34.98,33.84,-20.94,-161.398,45.905,56.397,49.17439857,-121.6781793,0.18000001
4.745,-0.5477,-0.6787,0.364,0.4312,0.2004,0.8065,0.326,0.1321,-0.4432,850.1387,35.04,33.84,-20.4,-156.493,45.905,56.397,49.17439857,-121.6781793,0.18000001
4.749,-0.5477,-0.6787,0.364,0.4312,0.2004,0.8065,0.2599,0.3324,-0.1204,850.1387,35.04,33.84,-20.4,-156.493,45.905,56.397,49.17439857,-121.6781793,0.18000001
4.757,-0.5477,-0.6787,0.364,0.4312,0.2004,0.8065,0.2599,0.3324,-0.1204,850.1555,35.04,33.84,-20.4,-156.493,45.905,56.397,49.17439857,-121.6781793,0.18000001
4.762,-0.5477,-0.6787,0.364,0.4312,0.2004,0.8065,0.2599,0.3324,-0.1204,850.1555,35.04,33.84,-20.4,-156.493,45.905,56.397,49.17439857,-121.6781793,0.18000001
4.77,-0.5477,-0.6787,0.364,0.193,0.7105,0.2433,0.2599,0.3324,-0.1204,850.1555,35.04,33.84,-20.4,-156.493,45.905,56.397,49.17439857,-121.6781793,0.18000001
4.802,-0.6748,-0.7247,0.5389,0.193,0.7105,0.2433,0.2599,0.3324,-0.1204,850.1555,35.04,33.84,-20.4,-88.668,40.003,51.389,49.17439857,-121.6781793,0.18000001
4.806,-0.6748,-0.7247,0.5389,0.193,0.7105,0.2433,0.2599,0.3324,-0.1204,850.1555,35.1,33.84,-19.92,-87.288,40.003,51.389,49.17439857,-121.6781793,0.18000001
4.809,-0.6748,-0.7247,0.5389,0.193,0.7105,0.2433,0.2812,0.3334,-0.2961,850.1555,35.1,33.84,-19.92,-87.288,40.003,51.389,49.17439857,-121.6781793,0.18000001
4.825,-0.6748,-0.7247,0.5389,-1.0891,0.317,2.0222,0.2812,0.3334,-0.2961,850.1555,35.1,33.84,-19.92,-87.288,40.003,51.389,49.17439857,-121.6781793,0.18000001
4.847,-0.6586,-0.7794,0.3351,-1.0891,0.317,2.0222,0.2812,0.3334,-0.2961,850.1555,35.1,33.84,-19.92,162.906,46.524,63.033,49.17439857,-121.6781793,0.18000001
4.848,-0.6586,-0.7794,0.3351,-1.0891,0.317,2.0222,0.2812,0.3334,-0.2961,850.1555,35.16,33.9,-19.38,167.085,46.524,63.033,49.17439857,-121.6781793,0.18000001
4.85,-0.6586,-0.7794,0.3351,-1.0891,0.317,2.0222,0.3547,0.1257,-0.457,850.1555,35.16,33.9,-19.38,167.085,46.524,63.033,49.17439857,-121.6781793,0.18000001
4.886,-0.6586,-0.7794,0.3351,-1.0544,-0.1486,-0.0194,0.3547,0.1257,-0.457,850.1555,35.16,33.9,-19.38,167.085,46.524,63.033,49.17439857,-121.6781793,0.18000001
4.908,-0.5736,-0.7315,0.4651,-1.0544,-0.1486,-0.0194,0.3547,0.1257,-0.457,850.1555,35.16,33.9,-19.38,-117.717,44.728,50.965,49.17439857,-121.6781793,0.18000001
4.91,-0.5736,-0.7315,0.4651,-1.0544,-0.1486,-0.0194,0.3547,0.1257,-0.457,850.1555,35.22,33.9,-18.84,-114.994,44.728,50.965,49.17439857,-121.6781793,0.18000001
4.914,-0.5736,-0.7315,0.4651,-1.0544,-0.1486,-0.0194,0.098,0.3419,0.0607,850.1555,35.22,33.9,-18.84,-114.994,44.728,50.965,49.17439857,-121.6781793,0.18000001
4.925,-0.5736,-0.7315,0.4651,-1.0544,-0.1486,-0.0194,0.098,0.3419,0.0607,850.1611,35.22,33.9,-18.84,-114.994,44.728,50.965,49.17439857,-121.6781793,0.18000001
4.928,-0.5736,-0.7315,0.4651,-1.0544,-0.1486,-0.0194,0.098,0.3419,0.0607,850.1611,35.22,33.9,-18.84,-114.994,44.728,50.965,49.17439857,-121.6781793,0.18000001
4.946,-0.5736,-0.7315,0.4651,-0.1148,0.2358,1.2387,0.098,0.3419,0.0607,850.1611,35.22,33.9,-18.84,-114.994,44.728,50.965,49.17439857,-121.6781793,0.18000001
4.968,-0.5981,-0.7164,0.4255,-0.1148,0.2358,1.2387,0.098,0.3419,0.0607,850.1611,35.22,33.9,-18.84,-123.957,44.304,54.568,49.17439857,-121.6781793,0.18000001
4.97,-0.5981,-0.7164,0.4255,-0.1148,0.2358,1.2387,0.098,0.3419,0.0607,850.1611,35.34,33.96,-18.36,-120.401,44.304,54.568,49.17439857,-121.6781793,0.18000001
4.974,-0.5981,-0.7164,0.4255,-0.1148,0.2358,1.2387,0.2695,0.0682,0.1289,850.1611,35.34,33.96,-18.36,-120.401,44.304,54.568,49.17439857,-121.6781793,0.18000001
5.006,-0.5981,-0.7164,0.4255,-0.3511,0.326,0.7289,0.2695,0.0682,0.1289,850.1611,35.34,33.96,-18.36,-120.401,44.304,54.568,49.17439857,-121.6781793,0.18000001
5.037,-0.5253,-0.6973,0.363,-0.3511,0.326,0.7289,0.2695,0.0682,0.1289,850.1611,35.34,33.96,-18.36,-141.224,47.522,55.354,49.17439857,-121.6781793,0.18000001
5.044,-0.5253,-0.6973,0.363,-0.3511,0.326,0.7289,0.2695,0.0682,0.1289,850.1611,35.4,33.96,-17.88,-138.132,47.522,55.354,49.17439857,-121.6781793,0.18000001
5.048,-0.5253,-0.6973,0.363,-0.3511,0.326,0.7289,0.1033,0.1065,-0.1023,850.1611,35.4,33.96,-17.88,-138.132,47.522,55.354,49.17439857,-121.6781793,0.18000001
5.068,-0.5253,-0.6973,0.363,0.4286,0.4824,0.1583,0.1033,0.1065,-0.1023,850.1611,35.4,33.96,-17.88,-138.132,47.522,55.354,49.17439857,-121.6781793,0.18000001
5.095,-0.6973,-0.8234,0.2491,0.4286,0.4824,0.1583,0.1033,0.1065,-0.1023,850.1611,35.4,33.96,-17.88,143.067,48.036,70.338,49.17439857,-121.6781793,0.18000001
5.1,-0.6973,-0.8234,0.2491,0.4286,0.4824,0.1583,0.1033,0.1065,-0.1023,850.1611,35.52,33.9,-17.4,145.934,48.036,70.338,49.17439857,-121.6781793,0.18000001
5.106,-0.6973,-0.8234,0.2491,0.4286,0.4824,0.1583,-0.0309,0.066,0.3654,850.1611,35.52,33.9,-17.4,145.934,48.036,70.338,49.17439857,-121.6781793,0.18000001
5.11,-0.6973,-0.8234,0.2491,0.4286,0.4824,0.1583,-0.0309,0.066,0.3654,850.1602,35.52,33.9,-17.4,145.934,48.036,70.338,49.17439857,-121.6781793,0.18000001
5.12,-0.6973,-0.8234,0.2491,0.4286,0.4824,0.1583,-0.0309,0.066,0.3654,850.1602,35.52,33.9,-17.4,145.934,48.036,70.338,49.17439857,-121.6781793,0.18000001
5.134,-0.6973,-0.8234,0.2491,-1.0916,-0.8926,-0.9797,-0.0309,0.066,0.3654,850.1602,35.52,33.9,-17.4,145.934,48.036,70.338,49.17439857,-121.6781793,0.18000001
5.153,-0.7173,-0.6695,0.4201,-1.0916,-0.8926,-0.9797,-0.0309,0.066,0.3654,850.1602,35.52,33.9,-17.4,-60.504,38.846,59.641,49.17439857,-121.6781793,0.18000001
5.158,-0.7173,-0.6695,0.4201,-1.0916,-0.8926,-0.9797,-0.0309,0.066,0.3654,850.1602,35.7,33.84,-16.92,-64.125,38.846,59.641,49.17439857,-121.6781793,0.18000001
5.164,-0.7173,-0.6695,0.4201,-1.0916,-0.8926,-0.9797,0.1204,-0.0479,0.0629,850.1602,35.7,33.84,-16.92,-64.125,38.846,59.641,49.17439857,-121.6781793,0.18000001
5.187,-0.7173,-0.6695,0.4201,-1.3081,0.5793,0.5879,0.1204,-0.0479,0.0629,850.1602,35.7,33.84,-16.92,-64.125,38.846,59.641,49.17439857,-121.6781793,0.18000001
5.217,-0.5717,-0.6812,0.4187,-1.3081,0.5793,0.5879,0.1204,-0.0479,0.0629,850.1602,35.7,33.84,-16.92,-108.52,43.87,53.782,49.17439857,-121.6781793,0.18000001
5.22,-0.5717,-0.6812,0.4187,-1.3081,0.5793,0.5879,0.1204,-0.0479,0.0629,850.1602,35.82,33.78,-16.44,-106.943,43.87,53.782,49.17439857,-121.6781793,0.18000001
5.223,-0.5717,-0.6812,0.4187,-1.3081,0.5793,0.5879,-0.0799,-0.1033,0.0991,850.1602,35.82,33.78,-16.44,-106.943,43.87,53.782,49.17439857,-121.6781793,0.18000001
5.249,-0.5717,-0.6812,0.4187,0.176,0.4376,0.6127,-0.0799,-0.1033,0.0991,850.1602,35.82,33.78,-16.44,-106.943,43.87,53.782,49.17439857,-121.6781793,0.18000001
5.282,-0.5052,-0.7418,0.3503,0.176,0.4376,0.6127,-0.0799,-0.1033,0.0991,850.1602,35.82,33.78,-16.44,-140.341,50.349,55.266,49.17439857,-121.6781793,0.18000001
5.284,-0.5052,-0.7418,0.3503,0.176,0.4376,0.6127,-0.0799,-0.1033,0.0991,850.1602,35.94,33.66,-15.96,-138.304,50.349,55.266,49.17439857,-121.6781793,0.18000001
5.285,-0.5052,-0.7418,0.3503,0.176,0.4376,0.6127,-0.1342,-0.0778,0.1065,850.1602,35.94,33.66,-15.96,-138.304,50.349,55.266,49.17439857,-121.6781793,0.18000001
5.287,-0.5052,-0.7418,0.3503,0.176,0.4376,0.6127,-0.1342,-0.0778,0.1065,850.0874,35.94,33.66,-15.96,-138.304,50.349,55.266,49.17439857,-121.6781793,0.18000001
5.289,-0.5052,-0.7418,0.3503,0.176,0.4376,0.6127,-0.1342,-0.0778,0.1065,850.0874,35.94,33.66,-15.96,-138.304,50.349,55.266,49.17439857,-121.6781793,0.18000001
5.306,-0.5052,-0.7418,0.3503,0.8236,-0.1262,-0.0019,-0.1342,-0.0778,0.1065,850.0874,35.94,33.66,-15.96,-138.304,50.349,55.266,49.17439857,-121.6781793,0.18000001
5.339,-0.6029,-0.7437,0.3229,0.8236,-0.1262,-0.0019,-0.1342,-0.0778,0.1065,850.0874,35.94,33.66,-15.96,-154.517,47.397,61.828,49.17439857,-121.6781793,0.18000001
5.353,-0.6029,-0.7437,0.3229,0.8236,-0.1262,-0.0019,-0.1342,-0.0778,0.1065,850.0874,36.12,33.6,-15.48,-150.706,47.397,61.828,49.17439857,-121.6781793,0.18000001
5.356,-0.6029,-0.7437,0.3229,0.8236,-0.1262,-0.0019,0.0064,-0.0224,0.1395,850.0874,36.12,33.6,-15.48,-150.706,47.397,61.828,49.17439857,-121.6781793,0.18000001
5.367,-0.6029,-0.7437,0.3229,-0.1326,-0.159,-0.2959,0.0064,-0.0224,0.1395,850.0874,36.12,33.6,-15.48,-150.706,47.397,61.828,49.17438366,-121.6782292,0
5.389,-0.6025,-0.7667,0.3527,-0.1326,-0.159,-0.2959,0.0064,-0.0224,0.1395,850.0874,36.12,33.6,-15.48,-141.775,47.68,59.653,49.17438366,-121.6782292,0
5.395,-0.6025,-0.7667,0.3527,-0.1326,-0.159,-0.2959,0.0064,-0.0224,0.1395,850.0874,36.3,33.42,-15,-139.267,47.68,59.653,49.17438366,-121.6782292,0
5.398,-0.6025,-0.7667,0.3527,-0.1326,-0.159,-0.2959,0.0064,-0.0629,0.0426,850.0874,36.3,33.42,-15,-139.267,47.68,59.653,49.17438366,-121.6782292,0
5.428,-0.6025,-0.7667,0.3527,-0.0955,-0.415,-0.0133,0.0064,-0.0629,0.0426,850.0874,36.3,33.42,-15,-139.267,47.68,59.653,49.17438366,-121.6782292,0
5.455,-0.5746,-0.7193,0.3351,-0.0955,-0.415,-0.0133,0.0064,-0.0629,0.0426,850.0874,36.3,33.42,-15,-137.799,47.238,59.748,49.17438366,-121.6782292,0
5.461,-0.5746,-0.7193,0.3351,-0.0955,-0.415,-0.0133,0.0064,-0.0629,0.0426,850.0874,36.48,33.24,-14.58,-135.857,47.238,59.748,49.17438366,-121.6782292,0
5.467,-0.5746,-0.7193,0.3351,-0.0955,-0.415,-0.0133,-0.0778,-0.1545,0.1907,850.0874,36.48,33.24,-14.58,-135.857,47.238,59.748,49.17438366,-121.6782292,0
5.473,-0.5746,-0.7193,0.3351,-0.0955,-0.415,-0.0133,-0.0778,-0.1545,0.1907,850.1445,36.48,33.24,-14.58,-135.857,47.238,59.748,49.17438366,-121.6782292,0
5.477,-0.5746,-0.7193,0.3351,-0.0955,-0.415,-0.0133,-0.0778,-0.1545,0.1907,850.1445,36.48,33.24,-14.58,-135.857,47.238,59.748,49.17438366,-121.6782292,0
5.484,-0.5746,-0.7193,0.3351,0.1892,0.057,-0.1503,-0.0778,-0.1545,0.1907,850.1445,36.48,33.24,-14.58,-135.857,47.238,59.748,49.17438366,-121.6782292,0
5.506,-0.5565,-0.7398,0.3542,0.1892,0.057,-0.1503,-0.0778,-0.1545,0.1907,850.1445,36.48,33.24,-14.58,-132.564,48.278,57.527,49.17438366,-121.6782292,0
5.507,-0.5565,-0.7398,0.3542,0.1892,0.057,-0.1503,-0.0778,-0.1545,0.1907,850.1445,36.6,33.06,-14.1,-130.8,48.278,57.527,49.17438366,-121.6782292,0
5.509,-0.5565,-0.7398,0.3542,0.1892,0.057,-0.1503,-0.2035,-0.0341,0.0437,850.1445,36.6,33.06,-14.1,-130.8,48.278,57.527,49.17438366,-121.6782292,0
5.545,-0.5565,-0.7398,0.3542,0.3225,-0.0771,0.1023,-0.2035,-0.0341,0.0437,850.1445,36.6,33.06,-14.1,-130.8,48.278,57.527,49.17438366,-121.6782292,0
5.576,-0.5546,-0.6411,0.3806,0.3225,-0.0771,0.1023,-0.2035,-0.0341,0.0437,850.1445,36.6,33.06,-14.1,-104.778,43.628,55.541,49.17438366,-121.6782292,0
5.583,-0.5546,-0.6411,0.3806,0.3225,-0.0771,0.1023,-0.2035,-0.0341,0.0437,850.1445,36.78,32.88,-13.68,-104.499,43.628,55.541,49.17438366,-121.6782292,0
5.587,-0.5546,-0.6411,0.3806,0.3225,-0.0771,0.1023,-0.2131,-0.0522,-0.0692,850.1445,36.78,32.88,-13.68,-104.499,43.628,55.541,49.17438366,-121.6782292,0
5.608,-0.5546,-0.6411,0.3806,0.3108,0.9188,0.3693,-0.2131,-0.0522,-0.0692,850.1445,36.78,32.88,-13.68,-104.499,43.628,55.541,49.17438366,-121.6782292,0
5.631,-0.6836,-0.6616,0.4197,0.3108,0.9188,0.3693,-0.2131,-0.0522,-0.0692,850.1445,36.78,32.88,-13.68,-83.497,39.518,58.453,49.17438366,-121.6782292,0
5.639,-0.6836,-0.6616,0.4197,0.3108,0.9188,0.3693,-0.2131,-0.0522,-0.0692,850.1445,36.84,32.64,-13.26,-84.365,39.518,58.453,49.17438366,-121.6782292,0
5.645,-0.6836,-0.6616,0.4197,0.3108,0.9188,0.3693,-0.3302,-0.1172,-0.1087,850.1445,36.84,32.64,-13.26,-84.365,39.518,58.453,49.17438366,-121.6782292,0
5.649,-0.6836,-0.6616,0.4197,0.3108,0.9188,0.3693,-0.3302,-0.1172,-0.1087,850.1196,36.84,32.64,-13.26,-84.365,39.518,58.453,49.17438366,-121.6782292,0
5.654,-0.6836,-0.6616,0.4197,0.3108,0.9188,0.3693,-0.3302,-0.1172,-0.1087,850.1196,36.84,32.64,-13.26,-84.365,39.518,58.453,49.17438366,-121.6782292,0
5.666,-0.6836,-0.6616,0.4197,-0.8824,0.7615,0.9759,-0.3302,-0.1172,-0.1087,850.1196,36.84,32.64,-13.26,-84.365,39.518,58.453,49.17438366,-121.6782292,0
5.699,-0.8047,-0.6006,0.5965,-0.8824,0.7615,0.9759,-0.3302,-0.1172,-0.1087,850.1196,36.84,32.64,-13.26,-52.321,30.944,53.451,49.17438366,-121.6782292,0
5.705,-0.8047,-0.6006,0.5965,-0.8824,0.7615,0.9759,-0.3302,-0.1172,-0.1087,850.1196,36.96,32.46,-12.84,-53.541,30.944,53.451,49.17438366,-121.6782292,0
5.709,-0.8047,-0.6006,0.5965,-0.8824,0.7615,0.9759,-0.6456,-0.8842,0.0714,850.1196,36.96,32.46,-12.84,-53.541,30.944,53.451,49.17438366,-121.6782292,0
5.727,-0.8047,-0.6006,0.5965,-2.007,1.3978,2.9213,-0.6456,-0.8842,0.0714,850.1196,36.96,32.46,-12.84,-53.541,30.944,53.451,49.17438366,-121.6782292,0
5.751,-0.7481,-0.7252,0.3786,-2.007,1.3978,2.9213,-0.6456,-0.8842,0.0714,850.1196,36.96,32.46,-12.84,-98.847,40.857,63.155,49.17438366,-121.6782292,0
5.756,-0.7481,-0.7252,0.3786,-2.007,1.3978,2.9213,-0.6456,-0.8842,0.0714,850.1196,37.02,32.28,-12.48,-98.953,40.857,63.155,49.17438366,-121.6782292,0
5.764,-0.7481,-0.7252,0.3786,-2.007,1.3978,2.9213,-0.5433,-0.229,0.3206,850.1196,37.02,32.28,-12.48,-98.953,40.857,63.155,49.17438366,-121.6782292,0
5.785,-0.7481,-0.7252,0.3786,-1.3773,0.1623,0.9022,-0.5433,-0.229,0.3206,850.1196,37.02,32.28,-12.48,-98.953,40.857,63.155,49.17438366,-121.6782292,0
5.809,-0.5003,-0.8703,0.2863,-1.3773,0.1623,0.9022,-0.5433,-0.229,0.3206,850.1196,37.02,32.28,-12.48,-151.877,56.481,60.224,49.17438366,-121.6782292,0
5.812,-0.5003,-0.8703,0.2863,-1.3773,0.1623,0.9022,-0.5433,-0.229,0.3206,850.1196,37.14,32.1,-12.18,-150.984,56.481,60.224,49.17438366,-121.6782292,0
5.816,-0.5003,-0.8703,0.2863,-1.3773,0.1623,0.9022,-0.4836,-0.0437,0.3143,850.1196,37.14,32.1,-12.18,-150.984,56.481,60.224,49.17438366,-121.6782292,0
5.825,-0.5003,-0.8703,0.2863,-1.3773,0.1623,0.9022,-0.4836,-0.0437,0.3143,850.1426,37.14,32.1,-12.18,-150.984,56.481,60.224,49.17438366,-121.6782292,0
5.827,-0.5003,-0.8703,0.2863,-1.3773,0.1623,0.9022,-0.4836,-0.0437,0.3143,850.1426,37.14,32.1,-12.18,-150.984,56.481,60.224,49.17438366,-121.6782292,0
5.845,-0.5003,-0.8703,0.2863,1.0756,-1.2415,0.1002,-0.4836,-0.0437,0.3143,850.1426,37.14,32.1,-12.18,-150.984,56.481,60.224,49.17438366,-121.6782292,0
5.872,-0.5824,-0.6704,0.3791,1.0756,-1.2415,0.1002,-0.4836,-0.0437,0.3143,850.1426,37.14,32.1,-12.18,-107.259,43.972,56.94,49.17438366,-121.6782292,0
5.879,-0.5824,-0.6704,0.3791,1.0756,-1.2415,0.1002,-0.4836,-0.0437,0.3143,850.1426,37.2,31.86,-11.94,-107.483,43.972,56.94,49.17438366,-121.6782292,0
5.883,-0.5824,-0.6704,0.3791,1.0756,-1.2415,0.1002,-0.2429,-0.4815,0.0607,850.1426,37.2,31.86,-11.94,-107.483,43.972,56.94,49.17438366,-121.6782292,0
5.903,-0.5824,-0.6704,0.3791,0.1543,0.8299,1.0613,-0.2429,-0.4815,0.0607,850.1426,37.2,31.86,-11.94,-107.483,43.972,56.94,49.17438366,-121.6782292,0
5.925,-0.5096,-0.8024,0.3977,0.1543,0.8299,1.0613,-0.2429,-0.4815,0.0607,850.1426,37.2,31.86,-11.94,-122.462,51.144,52.034,49.17438366,-121.6782292,0
5.927,-0.5096,-0.8024,0.3977,0.1543,0.8299,1.0613,-0.2429,-0.4815,0.0607,850.1426,37.26,31.68,-11.82,-122.488,51.144,52.034,49.17438366,-121.6782292,0
5.928,-0.5096,-0.8024,0.3977,0.1543,0.8299,1.0613,-0.424,-0.4442,-0.0149,850.1426,37.26,31.68,-11.82,-122.488,51.144,52.034,49.17438366,-121.6782292,0
5.965,-0.5096,-0.8024,0.3977,0.6122,-0.2477,1.3006,-0.424,-0.4442,-0.0149,850.1426,37.26,31.68,-11.82,-122.488,51.144,52.034,49.17438366,-121.6782292,0
5.987,-0.4251,-0.8126,0.2887,0.6122,-0.2477,1.3006,-0.424,-0.4442,-0.0149,850.1426,37.26,31.68,-11.82,-142.866,57.693,55.817,49.17438366,-121.6782292,0
5.99,-0.4251,-0.8126,0.2887,0.6122,-0.2477,1.3006,-0.424,-0.4442,-0.0149,850.1426,37.26,31.56,-11.7,-142.635,57.693,55.817,49.17438366,-121.6782292,0
5.994,-0.4251,-0.8126,0.2887,0.6122,-0.2477,1.3006,-0.0437,-0.4314,-0.0128,850.1426,37.26,31.56,-11.7,-142.635,57.693,55.817,49.17438366,-121.6782292,0
6.004,-0.4251,-0.8126,0.2887,0.6122,-0.2477,1.3006,-0.0437,-0.4314,-0.0128,850.1331,37.26,31.56,-11.7,-142.635,57.693,55.817,49.17438366,-121.6782292,0
6.007,-0.4251,-0.8126,0.2887,0.6122,-0.2477,1.3006,-0.0437,-0.4314,-0.0128,850.1331,37.26,31.56,-11.7,-142.635,57.693,55.817,49.17438366,-121.6782292,0
6.024,-0.4251,-0.8126,0.2887,1.2578,-0.2636,0.0979,-0.0437,-0.4314,-0.0128,850.1331,37.26,31.56,-11.7,-142.635,57.693,55.817,49.17438366,-121.6782292,0
6.046,-0.4779,-0.7051,0.4324,1.2578,-0.2636,0.0979,-0.0437,-0.4314,-0.0128,850.1331,37.26,31.56,-11.7,-106.704,47.575,47.862,49.17438366,-121.6782292,0
6.049,-0.4779,-0.7051,0.4324,1.2578,-0.2636,0.0979,-0.0437,-0.4314,-0.0128,850.1331,37.32,31.5,-11.64,-106.763,47.575,47.862,49.17438366,-121.6782292,0
6.055,-0.4779,-0.7051,0.4324,1.2578,-0.2636,0.0979,0.1001,0.5486,-0.1012,850.1331,37.32,31.5,-11.64,-106.763,47.575,47.862,49.17438366,-121.6782292,0
6.084,-0.4779,-0.7051,0.4324,0.8676,0.7861,1.762,0.1001,0.5486,-0.1012,850.1331,37.32,31.5,-11.64,-106.763,47.575,47.862,49.17438366,-121.6782292,0
6.124,-0.8614,-0.7833,0.4206,0.8676,0.7861,1.762,0.1001,0.5486,-0.1012,850.1331,37.32,31.5,-11.64,-90.565,39.252,63.974,49.17438366,-121.6782292,0
6.136,-0.8614,-0.7833,0.4206,0.8676,0.7861,1.762,0.1001,0.5486,-0.1012,850.1331,37.32,31.5,-11.64,-90.565,39.252,63.974,49.17438366,-121.6782292,0
6.142,-0.8614,-0.7833,0.4206,0.8676,0.7861,1.762,0.7936,-0.2173,0.7734,850.1331,37.32,31.5,-11.64,-90.565,39.252,63.974,49.17438366,-121.6782292,0
6.146,-0.8614,-0.7833,0.4206,-3.0186,0.0195,1.3782,0.7936,-0.2173,0.7734,850.1331,37.32,31.5,-11.64,-90.565,39.252,63.974,49.17438366,-121.6782292,0
6.169,-0.5526,-0.7726,0.3547,-3.0186,0.0195,1.3782,0.7936,-0.2173,0.7734,850.1331,37.32,31.5,-11.64,-128.768,49.637,57.308,49.17438366,-121.6782292,0
6.177,-0.5526,-0.7726,0.3547,-3.0186,0.0195,1.3782,0.7936,-0.2173,0.7734,850.1331,37.26,31.44,-11.58,-128.638,49.637,57.308,49.17438366,-121.6782292,0
6.182,-0.5526,-0.7726,0.3547,-3.0186,0.0195,1.3782,0.6221,0.1491,-0.3856,850.1331,37.26,31.44,-11.58,-128.638,49.637,57.308,49.17438366,-121.6782292,0
6.184,-0.5526,-0.7726,0.3547,-3.0186,0.0195,1.3782,0.6221,0.1491,-0.3856,850.072,37.26,31.44,-11.58,-128.638,49.637,57.308,49.17438366,-121.6782292,0
6.186,-0.5526,-0.7726,0.3547,-3.0186,0.0195,1.3782,0.6221,0.1491,-0.3856,850.072,37.26,31.44,-11.58,-128.638,49.637,57.308,49.17438366,-121.6782292,0
6.202,-0.5526,-0.7726,0.3547,-0.1043,0.1019,0.4617,0.6221,0.1491,-0.3856,850.072,37.26,31.44,-11.58,-128.638,49.637,57.308,49.17438366,-121.6782292,0
6.225,-0.5678,-0.6538,0.3674,-0.1043,0.1019,0.4617,0.6221,0.1491,-0.3856,850.072,37.26,31.44,-11.58,-108.469,44.034,57.095,49.17438366,-121.6782292,0
6.226,-0.5678,-0.6538,0.3674,-0.1043,0.1019,0.4617,0.6221,0.1491,-0.3856,850.072,37.2,31.44,-11.58,-108.35,44.034,57.095,49.17438366,-121.6782292,0
6.228,-0.5678,-0.6538,0.3674,-0.1043,0.1019,0.4617,0.7116,-0.7649,-0.3388,850.072,37.2,31.44,-11.58,-108.35,44.034,57.095,49.17438366,-121.6782292,0
6.263,-0.5678,-0.6538,0.3674,-0.6219,1.2411,-0.0388,0.7116,-0.7649,-0.3388,850.072,37.2,31.44,-11.58,-108.35,44.034,57.095,49.17438366,-121.6782292,0
6.286,-0.4158,-0.6973,0.5223,-0.6219,1.2411,-0.0388,0.7116,-0.7649,-0.3388,850.072,37.2,31.44,-11.58,-94.022,46.248,38.526,49.17438366,-121.6782292,0
6.288,-0.4158,-0.6973,0.5223,-0.6219,1.2411,-0.0388,0.7116,-0.7649,-0.3388,850.072,37.08,31.44,-11.7,-94.089,46.248,38.526,49.17438366,-121.6782292,0
6.291,-0.4158,-0.6973,0.5223,-0.6219,1.2411,-0.0388,0.3856,-0.4261,-0.3089,850.072,37.08,31.44,-11.7,-94.089,46.248,38.526,49.17438366,-121.6782292,0
6.323,-0.4158,-0.6973,0.5223,0.6639,0.7968,1.1825,0.3856,-0.4261,-0.3089,850.072,37.08,31.44,-11.7,-94.089,46.248,38.526,49.17438366,-121.6782292,0
6.345,-0.1427,-0.3704,0.3713,0.6639,0.7968,1.1825,0.3856,-0.4261,-0.3089,850.072,37.08,31.44,-11.7,-77.937,42.963,21.02,49.17438366,-121.6782292,0
6.35,-0.1427,-0.3704,0.3713,0.6639,0.7968,1.1825,0.3856,-0.4261,-0.3089,850.072,36.96,31.44,-11.94,-78.084,42.963,21.02,49.17438366,-121.6782292,0
6.353,-0.1427,-0.3704,0.3713,0.6639,0.7968,1.1825,-0.1523,0.7308,-0.4314,850.072,36.96,31.44,-11.94,-78.084,42.963,21.02,49.17438366,-121.6782292,0
6.364,-0.1427,-0.3704,0.3713,0.6639,0.7968,1.1825,-0.1523,0.7308,-0.4314,850.1145,36.96,31.44,-11.94,-78.084,42.963,21.02,49.17437898,-121.6782419,0
6.366,-0.1427,-0.3704,0.3713,0.6639,0.7968,1.1825,-0.1523,0.7308,-0.4314,850.1145,36.96,31.44,-11.94,-78.084,42.963,21.02,49.17437898,-121.6782419,0
6.382,-0.1427,-0.3704,0.3713,3.3266,4.1584,0.0077,-0.1523,0.7308,-0.4314,850.1145,36.96,31.44,-11.94,-78.084,42.963,21.02,49.17437898,-121.6782419,0
6.403,-0.601,-1.3433,0.3522,3.3266,4.1584,0.0077,-0.1523,0.7308,-0.4314,850.1145,36.96,31.44,-11.94,-156.395,62.589,59.626,49.17437898,-121.6782419,0
6.405,-0.601,-1.3433,0.3522,3.3266,4.1584,0.0077,-0.1523,0.7308,-0.4314,850.1145,36.66,31.44,-12.36,-157.652,62.589,59.626,49.17437898,-121.6782419,0
6.407,-0.601,-1.3433,0.3522,3.3266,4.1584,0.0077,0.6296,1.2655,-0.0724,850.1145,36.66,31.44,-12.36,-157.652,62.589,59.626,49.17437898,-121.6782419,0
6.444,-0.601,-1.3433,0.3522,-0.9994,-5.3655,0.0696,0.6296,1.2655,-0.0724,850.1145,36.66,31.44,-12.36,-157.652,62.589,59.626,49.17437898,-121.6782419,0
6.467,-0.4784,-0.6802,0.4055,-0.9994,-5.3655,0.0696,0.6296,1.2655,-0.0724,850.1145,36.66,31.44,-12.36,-109.751,47.327,49.713,49.17437898,-121.6782419,0
6.47,-0.4784,-0.6802,0.4055,-0.9994,-5.3655,0.0696,0.6296,1.2655,-0.0724,850.1145,36.3,31.5,-12.78,-110.325,47.327,49.713,49.17437898,-121.6782419,0
6.478,-0.4784,-0.6802,0.4055,-0.9994,-5.3655,0.0696,0.8181,0.0501,-0.1491,850.1145,36.3,31.5,-12.78,-110.325,47.327,49.713,49.17437898,-121.6782419,0
6.502,-0.4784,-0.6802,0.4055,0.1672,1.0298,0.317,0.8181,0.0501,-0.1491,850.1145,36.3,31.5,-12.78,-110.325,47.327,49.713,49.17437898,-121.6782419,0
6.523,-0.4334,-0.7721,0.3908,0.1672,1.0298,0.317,0.8181,0.0501,-0.1491,850.1145,36.3,31.5,-12.78,-122.218,52.915,47.957,49.17437898,-121.6782419,0
6.525,-0.4334,-0.7721,0.3908,0.1672,1.0298,0.317,0.8181,0.0501,-0.1491,850.1145,35.88,31.5,-13.26,-123.387,52.915,47.957,49.17437898,-121.6782419,0
6.527,-0.4334,-0.7721,0.3908,0.1672,1.0298,0.317,0.3995,0.4005,0.0469,850.1145,35.88,31.5,-13.26,-123.387,52.915,47.957,49.17437898,-121.6782419,0
6.54,-0.4334,-0.7721,0.3908,0.1672,1.0298,0.317,0.3995,0.4005,0.0469,850.0791,35.88,31.5,-13.26,-123.387,52.915,47.957,49.17437898,-121.6782419,0
6.543,-0.4334,-0.7721,0.3908,0.1672,1.0298,0.317,0.3995,0.4005,0.0469,850.0791,35.88,31.5,-13.26,-123.387,52.915,47.957,49.17437898,-121.6782419,0
6.561,-0.4334,-0.7721,0.3908,0.8245,-0.0094,0.1777,0.3995,0.4005,0.0469,850.0791,35.88,31.5,-13.26,-123.387,52.915,47.957,49.17437898,-121.6782419,0
6.587,-0.6621,-0.6739,0.448,0.8245,-0.0094,0.1777,0.3995,0.4005,0.0469,850.0791,35.88,31.5,-13.26,-89.105,40.129,55.915,49.17437898,-121.6782419,0
6.597,-0.6621,-0.6739,0.448,0.8245,-0.0094,0.1777,0.3995,0.4005,0.0469,850.0791,35.4,31.56,-13.8,-88.3,40.129,55.915,49.17437898,-121.6782419,0
6.603,-0.6621,-0.6739,0.448,0.8245,-0.0094,0.1777,0.5976,0.3771,0.3249,850.0791,35.4,31.56,-13.8,-88.3,40.129,55.915,49.17437898,-121.6782419,0
6.621,-0.6621,-0.6739,0.448,-1.1158,0.6555,0.5683,0.5976,0.3771,0.3249,850.0791,35.4,31.56,-13.8,-88.3,40.129,55.915,49.17437898,-121.6782419,0
6.643,-0.7036,-0.7271,0.491,-1.1158,0.6555,0.5683,0.5976,0.3771,0.3249,850.0791,35.4,31.56,-13.8,-88.706,40.28,55.092,49.17437898,-121.6782419,0
6.644,-0.7036,-0.7271,0.491,-1.1158,0.6555,0.5683,0.5976,0.3771,0.3249,850.0791,34.98,31.56,-14.34,-88.44,40.28,55.092,49.17437898,-121.6782419,0
6.646,-0.7036,-0.7271,0.491,-1.1158,0.6555,0.5683,0.3111,-0.0522,0.1119,850.0791,34.98,31.56,-14.34,-88.44,40.28,55.092,49.17437898,-121.6782419,0
6.681,-0.7036,-0.7271,0.491,-1.4631,-0.024,0.7836,0.3111,-0.0522,0.1119,850.0791,34.98,31.56,-14.34,-88.44,40.28,55.092,49.17437898,-121.6782419,0
6.706,-0.8091,-0.6113,0.4856,-1.4631,-0.024,0.7836,0.3111,-0.0522,0.1119,850.0791,34.98,31.56,-14.34,-42.763,32.935,59.029,49.17437898,-121.6782419,0
6.71,-0.8091,-0.6113,0.4856,-1.4631,-0.024,0.7836,0.3111,-0.0522,0.1119,850.0791,34.5,31.56,-14.88,-38.67,32.935,59.029,49.17437898,-121.6782419,0
6.713,-0.8091,-0.6113,0.4856,-1.4631,-0.024,0.7836,0.065,-0.6999,0.0117,850.0791,34.5,31.56,-14.88,-38.67,32.935,59.029,49.17437898,-121.6782419,0
6.72,-0.8091,-0.6113,0.4856,-1.4631,-0.024,0.7836,0.065,-0.6999,0.0117,850.2605,34.5,31.56,-14.88,-38.67,32.935,59.029,49.17437898,-121.6782419,0
6.723,-0.8091,-0.6113,0.4856,-1.4631,-0.024,0.7836,0.065,-0.6999,0.0117,850.2605,34.5,31.56,-14.88,-38.67,32.935,59.029,49.17437898,-121.6782419,0
6.741,-0.8091,-0.6113,0.4856,-2.6083,0.9916,0.3888,0.065,-0.6999,0.0117,850.2605,34.5,31.56,-14.88,-38.67,32.935,59.029,49.17437898,-121.6782419,0
6.765,-0.4085,-0.476,0.5433,-2.6083,0.9916,0.3888,0.065,-0.6999,0.0117,850.2605,34.5,31.56,-14.88,-69.041,35.002,36.939,49.17437898,-121.6782419,0
6.769,-0.4085,-0.476,0.5433,-2.6083,0.9916,0.3888,0.065,-0.6999,0.0117,850.2605,34.08,31.5,-15.54,-68.836,35.002,36.939,49.17437898,-121.6782419,0
6.782,-0.4085,-0.476,0.5433,-2.6083,0.9916,0.3888,0.0075,-1.1729,-0.0032,850.2605,34.08,31.5,-15.54,-68.836,35.002,36.939,49.17437898,-121.6782419,0
6.801,-0.4085,-0.476,0.5433,0.4834,2.4401,0.2678,0.0075,-1.1729,-0.0032,850.2605,34.08,31.5,-15.54,-68.836,35.002,36.939,49.17437898,-121.6782419,0
6.823,-0.1309,-0.8757,0.62,0.4834,2.4401,0.2678,0.0075,-1.1729,-0.0032,850.2605,34.08,31.5,-15.54,-89.156,54.109,11.926,49.17437898,-121.6782419,0
6.825,-0.1309,-0.8757,0.62,0.4834,2.4401,0.2678,0.0075,-1.1729,-0.0032,850.2605,33.6,31.38,-16.26,-90.227,54.109,11.926,49.17437898,-121.6782419,0
6.827,-0.1309,-0.8757,0.62,0.4834,2.4401,0.2678,-0.5135,2.2403,-0.4282,850.2605,33.6,31.38,-16.26,-90.227,54.109,11.926,49.17437898,-121.6782419,0
6.865,-0.1309,-0.8757,0.62,3.5195,-1.4303,1.3892,-0.5135,2.2403,-0.4282,850.2605,33.6,31.38,-16.26,-90.227,54.109,11.926,49.17437898,-121.6782419,0
6.885,-0.4647,-0.776,0.3786,3.5195,-1.4303,1.3892,-0.5135,2.2403,-0.4282,850.2605,33.6,31.38,-16.26,-137.965,52.316,50.827,49.17437898,-121.6782419,0
6.888,-0.4647,-0.776,0.3786,3.5195,-1.4303,1.3892,-0.5135,2.2403,-0.4282,850.2605,33.12,31.26,-17.1,-141.856,52.316,50.827,49.17437898,-121.6782419,0
6.89,-0.4647,-0.776,0.3786,3.5195,-1.4303,1.3892,0.0618,0.5177,0.0671,850.2605,33.12,31.26,-17.1,-141.856,52.316,50.827,49.17437898,-121.6782419,0
6.902,-0.4647,-0.776,0.3786,3.5195,-1.4303,1.3892,0.0618,0.5177,0.0671,850.3286,33.12,31.26,-17.1,-141.856,52.316,50.827,49.17437898,-121.6782419,0
6.905,-0.4647,-0.776,0.3786,3.5195,-1.4303,1.3892,0.0618,0.5177,0.0671,850.3286,33.12,31.26,-17.1,-141.856,52.316,50.827,49.17437898,-121.6782419,0
6.922,-0.4647,-0.776,0.3786,0.294,-0.4939,-0.9914,0.0618,0.5177,0.0671,850.3286,33.12,31.26,-17.1,-141.856,52.316,50.827,49.17437898,-121.6782419,0
6.944,-0.4378,-0.7305,0.3532,0.294,-0.4939,-0.9914,0.0618,0.5177,0.0671,850.3286,33.12,31.26,-17.1,-142.787,52.404,51.104,49.17437898,-121.6782419,0
6.947,-0.4378,-0.7305,0.3532,0.294,-0.4939,-0.9914,0.0618,0.5177,0.0671,850.3286,32.64,31.14,-17.82,-146.459,52.404,51.104,49.17437898,-121.6782419,0
6.949,-0.4378,-0.7305,0.3532,0.294,-0.4939,-0.9914,-0.539,1.2272,0.2951,850.3286,32.64,31.14,-17.82,-146.459,52.404,51.104,49.17437898,-121.6782419,0
6.982,-0.4378,-0.7305,0.3532,0.8182,-0.2559,-1.2732,-0.539,1.2272,0.2951,850.3286,32.64,31.14,-17.82,-146.459,52.404,51.104,49.17437898,-121.6782419,0
7.009,-0.2253,-1.0726,0.3767,0.8182,-0.2559,-1.2732,-0.539,1.2272,0.2951,850.3286,32.64,31.14,-17.82,-133.44,67.747,30.88,49.17437898,-121.6782419,0
7.012,-0.2253,-1.0726,0.3767,0.8182,-0.2559,-1.2732,-0.539,1.2272,0.2951,850.3286,32.16,30.96,-18.6,-135.428,67.747,30.88,49.17437898,-121.6782419,0
7.015,-0.2253,-1.0726,0.3767,0.8182,-0.2559,-1.2732,-0.5433,0.1981,0.3356,850.3286,32.16,30.96,-18.6,-135.428,67.747,30.88,49.17437898,-121.6782419,0
7.044,-0.2253,-1.0726,0.3767,3.0339,-3.7949,-1.1658,-0.5433,0.1981,0.3356,850.3286,32.16,30.96,-18.6,-135.428,67.747,30.88,49.17437898,-121.6782419,0
7.067,-0.3303,-0.0274,0.836,3.0339,-3.7949,-1.1658,-0.5433,0.1981,0.3356,850.3286,32.16,30.96,-18.6,-37.513,1.748,21.56,49.17437898,-121.6782419,0
7.074,-0.3303,-0.0274,0.836,3.0339,-3.7949,-1.1658,-0.5433,0.1981,0.3356,850.3286,31.74,30.78,-19.38,-36.873,1.748,21.56,49.17437898,-121.6782419,0
7.081,-0.3303,-0.0274,0.836,3.0339,-3.7949,-1.1658,-0.5198,0.1811,0.2546,850.3286,31.74,30.78,-19.38,-36.873,1.748,21.56,49.17437898,-121.6782419,0
7.084,-0.3303,-0.0274,0.836,3.0339,-3.7949,-1.1658,-0.5198,0.1811,0.2546,850.2588,31.74,30.78,-19.38,-36.873,1.748,21.56,49.17437898,-121.6782419,0
7.086,-0.3303,-0.0274,0.836,3.0339,-3.7949,-1.1658,-0.5198,0.1811,0.2546,850.2588,31.74,30.78,-19.38,-36.873,1.748,21.56,49.17437898,-121.6782419,0
7.1,-0.3303,-0.0274,0.836,1.9991,6.6823,3.6717,-0.5198,0.1811,0.2546,850.2588,31.74,30.78,-19.38,-36.873,1.748,21.56,49.17437898,-121.6782419,0
7.121,-0.8424,-0.8512,0.8926,1.9991,6.6823,3.6717,-0.5198,0.1811,0.2546,850.2588,31.74,30.78,-19.38,-63.653,34.743,43.341,49.17437898,-121.6782419,0
7.123,-0.8424,-0.8512,0.8926,1.9991,6.6823,3.6717,-0.5198,0.1811,0.2546,850.2588,31.32,30.6,-20.04,-63.053,34.743,43.341,49.17437898,-121.6782419,0
7.125,-0.8424,-0.8512,0.8926,1.9991,6.6823,3.6717,-0.6242,0.3601,-0.0927,850.2588,31.32,30.6,-20.04,-63.053,34.743,43.341,49.17437898,-121.6782419,0
7.162,-0.8424,-0.8512,0.8926,-2.8115,-1.2735,4.6769,-0.6242,0.3601,-0.0927,850.2588,31.32,30.6,-20.04,-63.053,34.743,43.341,49.17437898,-121.6782419,0
7.184,-0.537,-1.1859,0.4026,-2.8115,-1.2735,4.6769,-0.6242,0.3601,-0.0927,850.2588,31.32,30.6,-20.04,-170.91,60.494,53.143,49.17437898,-121.6782419,0
7.187,-0.537,-1.1859,0.4026,-2.8115,-1.2735,4.6769,-0.6242,0.3601,-0.0927,850.2588,30.9,30.42,-20.7,-173.513,60.494,53.143,49.17437898,-121.6782419,0
7.19,-0.537,-1.1859,0.4026,-2.8115,-1.2735,4.6769,-1.4338,0.0618,0.1182,850.2588,30.9,30.42,-20.7,-173.513,60.494,53.143,49.17437898,-121.6782419,0
7.222,-0.537,-1.1859,0.4026,0.1636,-4.0603,0.855,-1.4338,0.0618,0.1182,850.2588,30.9,30.42,-20.7,-173.513,60.494,53.143,49.17437898,-121.6782419,0
7.246,-0.7393,-0.9792,0.1968,0.1636,-4.0603,0.855,-1.4338,0.0618,0.1182,850.2588,30.9,30.42,-20.7,126.749,52.001,75.09,49.17437898,-121.6782419,0
7.249,-0.7393,-0.9792,0.1968,0.1636,-4.0603,0.855,-1.4338,0.0618,0.1182,850.2588,30.6,30.3,-21.12,125.466,52.001,75.09,49.17437898,-121.6782419,0
7.252,-0.7393,-0.9792,0.1968,0.1636,-4.0603,0.855,-0.7159,0.1949,0.7361,850.2588,30.6,30.3,-21.12,125.466,52.001,75.09,49.17437898,-121.6782419,0
7.263,-0.7393,-0.9792,0.1968,0.1636,-4.0603,0.855,-0.7159,0.1949,0.7361,850.3171,30.6,30.3,-21.12,125.466,52.001,75.09,49.17437898,-121.6782419,0
7.266,-0.7393,-0.9792,0.1968,0.1636,-4.0603,0.855,-0.7159,0.1949,0.7361,850.3171,30.6,30.3,-21.12,125.466,52.001,75.09,49.17437898,-121.6782419,0
7.281,-0.7393,-0.9792,0.1968,-1.4709,-2.1661,-0.8314,-0.7159,0.1949,0.7361,850.3171,30.6,30.3,-21.12,125.466,52.001,75.09,49.17437898,-121.6782419,0
7.303,-0.5932,-0.5825,0.3625,-1.4709,-2.1661,-0.8314,-0.7159,0.1949,0.7361,850.3171,30.6,30.3,-21.12,106.656,39.96,58.571,49.17437898,-121.6782419,0
7.306,-0.5932,-0.5825,0.3625,-1.4709,-2.1661,-0.8314,-0.7159,0.1949,0.7361,850.3171,30.42,30.18,-21.12,105.806,39.96,58.571,49.17437898,-121.6782419,0
7.308,-0.5932,-0.5825,0.3625,-1.4709,-2.1661,-0.8314,-0.114,0.18,0.0543,850.3171,30.42,30.18,-21.12,105.806,39.96,58.571,49.17437898,-121.6782419,0
7.341,-0.5932,-0.5825,0.3625,-0.0112,1.7232,0.8542,-0.114,0.18,0.0543,850.3171,30.42,30.18,-21.12,105.806,39.96,58.571,49.17437898,-121.6782419,0
7.366,-0.6743,-0.8209,0.2907,-0.0112,1.7232,0.8542,-0.114,0.18,0.0543,850.3171,30.42,30.18,-21.12,133.317,48.19,66.681,49.17437898,-121.6782419,0
7.368,-0.6743,-0.8209,0.2907,-0.0112,1.7232,0.8542,-0.114,0.18,0.0543,850.3171,30.36,30.06,-20.88,133.961,48.19,66.681,49.17437898,-121.6782419,0
7.371,-0.6743,-0.8209,0.2907,-0.0112,1.7232,0.8542,-0.4996,-0.0213,-0.0394,850.3171,30.36,30.06,-20.88,133.961,48.19,66.681,49.17437898,-121.6782419,0
7.401,-0.6743,-0.8209,0.2907,-0.8106,-0.5163,0.4241,-0.4996,-0.0213,-0.0394,850.3171,30.36,30.06,-20.88,133.961,48.19,66.681,49.17438534,-121.6782665,0
7.423,-0.7231,-0.9934,0.1592,-0.8106,-0.5163,0.4241,-0.4996,-0.0213,-0.0394,850.3171,30.36,30.06,-20.88,124.161,53.3,77.582,49.17438534,-121.6782665,0
7.426,-0.7231,-0.9934,0.1592,-0.8106,-0.5163,0.4241,-0.4996,-0.0213,-0.0394,850.3171,30.48,29.94,-20.46,125.283,53.3,77.582,49.17438534,-121.6782665,0
7.429,-0.7231,-0.9934,0.1592,-0.8106,-0.5163,0.4241,-0.2461,-0.1119,0.261,850.3171,30.48,29.94,-20.46,125.283,53.3,77.582,49.17438534,-121.6782665,0
7.44,-0.7231,-0.9934,0.1592,-0.8106,-0.5163,0.4241,-0.2461,-0.1119,0.261,850.2683,30.48,29.94,-20.46,125.283,53.3,77.582,49.17438534,-121.6782665,0
7.444,-0.7231,-0.9934,0.1592,-0.8106,-0.5163,0.4241,-0.2461,-0.1119,0.261,850.2683,30.48,29.94,-20.46,125.283,53.3,77.582,49.17438534,-121.6782665,0
7.46,-0.7231,-0.9934,0.1592,-1.2317,-2.2449,-0.8438,-0.2461,-0.1119,0.261,850.2683,30.48,29.94,-20.46,125.283,53.3,77.582,49.17438534,-121.6782665,0
7.482,-0.5819,-0.8126,0.2574,-1.2317,-2.2449,-0.8438,-0.2461,-0.1119,0.261,850.2683,30.48,29.94,-20.46,147.474,51.937,66.136,49.17438534,-121.6782665,0
7.485,-0.5819,-0.8126,0.2574,-1.2317,-2.2449,-0.8438,-0.2461,-0.1119,0.261,850.2683,30.66,29.88,-19.86,150.015,51.937,66.136,49.17438534,-121.6782665,0
7.488,-0.5819,-0.8126,0.2574,-1.2317,-2.2449,-0.8438,0.4389,-0.1097,0.13,850.2683,30.66,29.88,-19.86,150.015,51.937,66.136,49.17438534,-121.6782665,0
7.521,-0.5819,-0.8126,0.2574,0.1482,-0.5544,-0.1298,0.4389,-0.1097,0.13,850.2683,30.66,29.88,-19.86,150.015,51.937,66.136,49.17438534,-121.6782665,0
7.544,-0.5516,-0.6802,0.2814,0.1482,-0.5544,-0.1298,0.4389,-0.1097,0.13,850.2683,30.66,29.88,-19.86,150.893,47.685,62.975,49.17438534,-121.6782665,0
7.546,-0.5516,-0.6802,0.2814,0.1482,-0.5544,-0.1298,0.4389,-0.1097,0.13,850.2683,30.9,29.82,-19.2,155.529,47.685,62.975,49.17438534,-121.6782665,0
7.549,-0.5516,-0.6802,0.2814,0.1482,-0.5544,-0.1298,0.4133,0.0447,0.033,850.2683,30.9,29.82,-19.2,155.529,47.685,62.975,49.17438534,-121.6782665,0
7.58,-0.5516,-0.6802,0.2814,0.4748,0.6609,-0.0533,0.4133,0.0447,0.033,850.2683,30.9,29.82,-19.2,155.529,47.685,62.975,49.17438534,-121.6782665,0
7.606,-0.6611,-0.6636,0.1783,0.4748,0.6609,-0.0533,0.4133,0.0447,0.033,850.2683,30.9,29.82,-19.2,105.089,44.103,74.908,49.17438534,-121.6782665,0
7.61,-0.6611,-0.6636,0.1783,0.4748,0.6609,-0.0533,0.4133,0.0447,0.033,850.2683,31.2,29.76,-18.6,106.776,44.103,74.908,49.17438534,-121.6782665,0
7.619,-0.6611,-0.6636,0.1783,0.4748,0.6609,-0.0533,0.3111,0.1225,0.065,850.2683,31.2,29.76,-18.6,106.776,44.103,74.908,49.17438534,-121.6782665,0
7.623,-0.6611,-0.6636,0.1783,0.4748,0.6609,-0.0533,0.3111,0.1225,0.065,850.053,31.2,29.76,-18.6,106.776,44.103,74.908,49.17438534,-121.6782665,0
7.627,-0.6611,-0.6636,0.1783,0.4748,0.6609,-0.0533,0.3111,0.1225,0.065,850.053,31.2,29.76,-18.6,106.776,44.103,74.908,49.17438534,-121.6782665,0
7.638,-0.6611,-0.6636,0.1783,-0.4778,0.7246,-1.0665,0.3111,0.1225,0.065,850.053,31.2,29.76,-18.6,106.776,44.103,74.908,49.17438534,-121.6782665,0
7.662,-0.6968,-0.6631,0.2394,-0.4778,0.7246,-1.0665,0.3111,0.1225,0.065,850.053,31.2,29.76,-18.6,102.579,41.989,71.041,49.17438534,-121.6782665,0
7.665,-0.6968,-0.6631,0.2394,-0.4778,0.7246,-1.0665,0.3111,0.1225,0.065,850.053,31.5,29.7,-18,104.591,41.989,71.041,49.17438534,-121.6782665,0
7.67,-0.6968,-0.6631,0.2394,-0.4778,0.7246,-1.0665,0.0554,0.1747,0.1438,850.053,31.5,29.7,-18,104.591,41.989,71.041,49.17438534,-121.6782665,0
7.7,-0.6968,-0.6631,0.2394,-0.6651,0.6288,-0.3723,0.0554,0.1747,0.1438,850.053,31.5,29.7,-18,104.591,41.989,71.041,49.17438534,-121.6782665,0
7.728,-0.687,-0.6426,0.2648,-0.6651,0.6288,-0.3723,0.0554,0.1747,0.1438,850.053,31.5,29.7,-18,102.457,41.114,68.923,49.17438534,-121.6782665,0
7.737,-0.687,-0.6426,0.2648,-0.6651,0.6288,-0.3723,0.0554,0.1747,0.1438,850.053,31.8,29.7,-17.28,104.606,41.114,68.923,49.17438534,-121.6782665,0
7.742,-0.687,-0.6426,0.2648,-0.6651,0.6288,-0.3723,-0.1811,0.0447,0.0746,850.053,31.8,29.7,-17.28,104.606,41.114,68.923,49.17438534,-121.6782665,0
7.765,-0.687,-0.6426,0.2648,-0.5026,0.7903,-0.0741,-0.1811,0.0447,0.0746,850.053,31.8,29.7,-17.28,104.606,41.114,68.923,49.17438534,-121.6782665,0
7.785,-0.6982,-0.7344,0.298,-0.5026,0.7903,-0.0741,-0.1811,0.0447,0.0746,850.053,31.8,29.7,-17.28,137.384,44.052,66.888,49.17438534,-121.6782665,0
7.789,-0.6982,-0.7344,0.298,-0.5026,0.7903,-0.0741,-0.1811,0.0447,0.0746,850.053,32.16,29.76,-16.44,145.734,44.052,66.888,49.17438534,-121.6782665,0
7.796,-0.6982,-0.7344,0.298,-0.5026,0.7903,-0.0741,-0.2099,0.0043,0.1033,850.053,32.16,29.76,-16.44,145.734,44.052,66.888,49.17438534,-121.6782665,0
7.801,-0.6982,-0.7344,0.298,-0.5026,0.7903,-0.0741,-0.2099,0.0043,0.1033,850.3215,32.16,29.76,-16.44,145.734,44.052,66.888,49.17438534,-121.6782665,0
7.807,-0.6982,-0.7344,0.298,-0.5026,0.7903,-0.0741,-0.2099,0.0043,0.1033,850.3215,32.16,29.76,-16.44,145.734,44.052,66.888,49.17438534,-121.6782665,0
7.818,-0.6982,-0.7344,0.298,-0.553,-0.1377,0.3187,-0.2099,0.0043,0.1033,850.3215,32.16,29.76,-16.44,145.734,44.052,66.888,49.17438534,-121.6782665,0
7.839,-0.6323,-0.7696,0.2384,-0.553,-0.1377,0.3187,-0.2099,0.0043,0.1033,850.3215,32.16,29.76,-16.44,151.177,48.718,69.342,49.17438534,-121.6782665,0
7.841,-0.6323,-0.7696,0.2384,-0.553,-0.1377,0.3187,-0.2099,0.0043,0.1033,850.3215,32.58,29.82,-15.54,157.494,48.718,69.342,49.17438534,-121.6782665,0
7.843,-0.6323,-0.7696,0.2384,-0.553,-0.1377,0.3187,-0.0874,0.0138,0.0874,850.3215,32.58,29.82,-15.54,157.494,48.718,69.342,49.17438534,-121.6782665,0
7.887,-0.6323,-0.7696,0.2384,0.1102,-0.4883,-0.2405,-0.0874,0.0138,0.0874,850.3215,32.58,29.82,-15.54,157.494,48.718,69.342,49.17438534,-121.6782665,0
7.912,-0.6235,-0.7437,0.2252,0.1102,-0.4883,-0.2405,-0.0874,0.0138,0.0874,850.3215,32.58,29.82,-15.54,153.036,48.289,70.141,49.17438534,-121.6782665,0
7.914,-0.6235,-0.7437,0.2252,0.1102,-0.4883,-0.2405,-0.0874,0.0138,0.0874,850.3215,33,29.94,-14.7,159.449,48.289,70.141,49.17438534,-121.6782665,0
7.916,-0.6235,-0.7437,0.2252,0.1102,-0.4883,-0.2405,-0.0021,0.0224,-0.0383,850.3215,33,29.94,-14.7,159.449,48.289,70.141,49.17438534,-121.6782665,0
7.938,-0.6235,-0.7437,0.2252,0.135,-0.1829,-0.3776,-0.0021,0.0224,-0.0383,850.3215,33,29.94,-14.7,159.449,48.289,70.141,49.17438534,-121.6782665,0
7.959,-0.5922,-0.7315,0.2257,0.135,-0.1829,-0.3776,-0.0021,0.0224,-0.0383,850.3215,33,29.94,-14.7,165.47,49.096,69.139,49.17438534,-121.6782665,0
7.961,-0.5922,-0.7315,0.2257,0.135,-0.1829,-0.3776,-0.0021,0.0224,-0.0383,850.3215,33.42,30,-13.86,172.222,49.096,69.139,49.17438534,-121.6782665,0
7.963,-0.5922,-0.7315,0.2257,0.135,-0.1829,-0.3776,0.1182,-0.0426,-0.0383,850.3215,33.42,30,-13.86,172.222,49.096,69.139,49.17438534,-121.6782665,0
7.977,-0.5922,-0.7315,0.2257,0.135,-0.1829,-0.3776,0.1182,-0.0426,-0.0383,850.3325,33.42,30,-13.86,172.222,49.096,69.139,49.17438534,-121.6782665,0
7.979,-0.5922,-0.7315,0.2257,0.135,-0.1829,-0.3776,0.1182,-0.0426,-0.0383,850.3325,33.42,30,-13.86,172.222,49.096,69.139,49.17438534,-121.6782665,0
7.998,-0.5922,-0.7315,0.2257,0.4161,-0.0257,-0.3303,0.1182,-0.0426,-0.0383,850.3325,33.42,30,-13.86,172.222,49.096,69.139,49.17438534,-121.6782665,0
8.034,-0.5531,-0.7115,0.2936,0.4161,-0.0257,-0.3303,0.1182,-0.0426,-0.0383,850.3325,33.42,30,-13.86,-154.599,48.648,62.04,49.17438534,-121.6782665,0
8.036,-0.5531,-0.7115,0.2936,0.4161,-0.0257,-0.3303,0.1182,-0.0426,-0.0383,850.3325,33.78,30,-13.02,-148.79,48.648,62.04,49.17438534,-121.6782665,0
8.038,-0.5531,-0.7115,0.2936,0.4161,-0.0257,-0.3303,0.2322,0.2482,0.0202,850.3325,33.78,30,-13.02,-148.79,48.648,62.04,49.17438534,-121.6782665,0
8.058,-0.5531,-0.7115,0.2936,0.7995,0.1336,0.2343,0.2322,0.2482,0.0202,850.3325,33.78,30,-13.02,-148.79,48.648,62.04,49.17438534,-121.6782665,0
8.079,-0.6635,-0.645,0.3146,0.7995,0.1336,0.2343,0.2322,0.2482,0.0202,850.3325,33.78,30,-13.02,-115.39,41.295,64.633,49.17438534,-121.6782665,0
8.081,-0.6635,-0.645,0.3146,0.7995,0.1336,0.2343,0.2322,0.2482,0.0202,850.3325,34.2,30,-12.18,-109.594,41.295,64.633,49.17438534,-121.6782665,0
8.083,-0.6635,-0.645,0.3146,0.7995,0.1336,0.2343,0.6605,0.4133,-0.245,850.3325,34.2,30,-12.18,-109.594,41.295,64.633,49.17438534,-121.6782665,0
8.119,-0.6635,-0.645,0.3146,-0.4735,0.7832,0.0261,0.6605,0.4133,-0.245,850.3325,34.2,30,-12.18,-109.594,41.295,64.633,49.17438534,-121.6782665,0
8.149,-0.6367,-0.7789,0.3913,-0.4735,0.7832,0.0261,0.6605,0.4133,-0.245,850.3325,34.2,30,-12.18,-122.819,46.186,58.423,49.17438534,-121.6782665,0
8.157,-0.6367,-0.7789,0.3913,-0.4735,0.7832,0.0261,0.6605,0.4133,-0.245,850.3325,34.56,29.94,-11.46,-120.189,46.186,58.423,49.17438534,-121.6782665,0
8.162,-0.6367,-0.7789,0.3913,-0.4735,0.7832,0.0261,1.1047,0.0554,-0.6711,850.3325,34.56,29.94,-11.46,-120.189,46.186,58.423,49.17438534,-121.6782665,0
8.167,-0.6367,-0.7789,0.3913,-0.4735,0.7832,0.0261,1.1047,0.0554,-0.6711,850.2783,34.56,29.94,-11.46,-120.189,46.186,58.423,49.17438534,-121.6782665,0
8.173,-0.6367,-0.7789,0.3913,-0.4735,0.7832,0.0261,1.1047,0.0554,-0.6711,850.2783,34.56,29.94,-11.46,-120.189,46.186,58.423,49.17438534,-121.6782665,0
8.178,-0.6367,-0.7789,0.3913,-0.3662,-0.4785,0.5967,1.1047,0.0554,-0.6711,850.2783,34.56,29.94,-11.46,-120.189,46.186,58.423,49.17438534,-121.6782665,0
8.203,-0.7642,-0.7686,0.2442,-0.3662,-0.4785,0.5967,1.1047,0.0554,-0.6711,850.2783,34.56,29.94,-11.46,173.692,43.774,72.275,49.17438534,-121.6782665,0
8.206,-0.7642,-0.7686,0.2442,-0.3662,-0.4785,0.5967,1.1047,0.0554,-0.6711,850.2783,34.86,29.88,-10.8,-174.933,43.774,72.275,49.17438534,-121.6782665,0
8.209,-0.7642,-0.7686,0.2442,-0.3662,-0.4785,0.5967,0.3867,0.5859,-0.3238,850.2783,34.86,29.88,-10.8,-174.933,43.774,72.275,49.17438534,-121.6782665,0
8.239,-0.7642,-0.7686,0.2442,-1.5874,-0.3936,-0.827,0.3867,0.5859,-0.3238,850.2783,34.86,29.88,-10.8,-174.933,43.774,72.275,49.17438534,-121.6782665,0
8.27,-0.9015,-0.7413,0.2687,-1.5874,-0.3936,-0.827,0.3867,0.5859,-0.3238,850.2783,34.86,29.88,-10.8,24.045,38.239,73.404,49.17438534,-121.6782665,0
8.276,-0.9015,-0.7413,0.2687,-1.5874,-0.3936,-0.827,0.3867,0.5859,-0.3238,850.2783,35.16,29.64,-10.44,-3.686,38.239,73.404,49.17438534,-121.6782665,0
8.28,-0.9015,-0.7413,0.2687,-1.5874,-0.3936,-0.827,0.3984,-0.016,-0.2589,850.2783,35.16,29.64,-10.44,-3.686,38.239,73.404,49.17438534,-121.6782665,0
8.301,-0.9015,-0.7413,0.2687,-2.9331,-0.174,-0.6935,0.3984,-0.016,-0.2589,850.2783,35.16,29.64,-10.44,-3.686,38.239,73.404,49.17438534,-121.6782665,0
8.325,-0.6196,-0.5688,0.2252,-2.9331,-0.174,-0.6935,0.3984,-0.016,-0.2589,850.2783,35.16,29.64,-10.44,-123.882,40.789,70.026,49.17438534,-121.6782665,0
8.333,-0.6196,-0.5688,0.2252,-2.9331,-0.174,-0.6935,0.3984,-0.016,-0.2589,850.2783,35.34,29.46,-10.2,-123.889,40.789,70.026,49.17438534,-121.6782665,0
8.348,-0.6196,-0.5688,0.2252,-2.9331,-0.174,-0.6935,0.0586,-0.1875,-0.0138,850.2783,35.34,29.46,-10.2,-123.889,40.789,70.026,49.17438534,-121.6782665,0
8.354,-0.6196,-0.5688,0.2252,-2.9331,-0.174,-0.6935,0.0586,-0.1875,-0.0138,850.3198,35.34,29.46,-10.2,-123.889,40.789,70.026,49.17438534,-121.6782665,0
8.356,-0.6196,-0.5688,0.2252,-2.9331,-0.174,-0.6935,0.0586,-0.1875,-0.0138,850.3198,35.34,29.46,-10.2,-123.889,40.789,70.026,49.17438534,-121.6782665,0
8.358,-0.6196,-0.5688,0.2252,-0.1638,1.484,-1.1765,0.0586,-0.1875,-0.0138,850.3198,35.34,29.46,-10.2,-123.889,40.789,70.026,49.17438534,-121.6782665,0
8.379,-0.6367,-0.7169,0.2814,-0.1638,1.484,-1.1765,0.0586,-0.1875,-0.0138,850.3198,35.34,29.46,-10.2,-138.618,45.843,66.156,49.17440282,-121.6782209,0
8.38,-0.6367,-0.7169,0.2814,-0.1638,1.484,-1.1765,0.0586,-0.1875,-0.0138,850.3198,35.52,29.22,-10.14,-139.217,45.843,66.156,49.17440282,-121.6782209,0
8.382,-0.6367,-0.7169,0.2814,-0.1638,1.484,-1.1765,-0.2876,-0.3419,0.0767,850.3198,35.52,29.22,-10.14,-139.217,45.843,66.156,49.17440282,-121.6782209,0
8.416,-0.6367,-0.7169,0.2814,-0.3858,0.1032,-0.5732,-0.2876,-0.3419,0.0767,850.3198,35.52,29.22,-10.14,-139.217,45.843,66.156,49.17440282,-121.6782209,0
8.439,-0.5482,-0.6812,0.3732,-0.3858,0.1032,-0.5732,-0.2876,-0.3419,0.0767,850.3198,35.52,29.22,-10.14,-112.222,45.766,55.752,49.17440282,-121.6782209,0
8.441,-0.5482,-0.6812,0.3732,-0.3858,0.1032,-0.5732,-0.2876,-0.3419,0.0767,850.3198,35.64,28.92,-10.14,-113.277,45.766,55.752,49.17440282,-121.6782209,0
8.443,-0.5482,-0.6812,0.3732,-0.3858,0.1032,-0.5732,-0.4783,-0.0501,0.2386,850.3198,35.64,28.92,-10.14,-113.277,45.766,55.752,49.17440282,-121.6782209,0
8.483,-0.5482,-0.6812,0.3732,0.5132,0.4509,0.3807,-0.4783,-0.0501,0.2386,850.3198,35.64,28.92,-10.14,-113.277,45.766,55.752,49.17440282,-121.6782209,0
8.502,-0.6029,-0.7452,0.3517,0.5132,0.4509,0.3807,-0.4783,-0.0501,0.2386,850.3198,35.64,28.92,-10.14,-124.93,46.871,59.742,49.17440282,-121.6782209,0
8.505,-0.6029,-0.7452,0.3517,0.5132,0.4509,0.3807,-0.4783,-0.0501,0.2386,850.3198,35.7,28.62,-10.2,-126.088,46.871,59.742,49.17440282,-121.6782209,0
8.508,-0.6029,-0.7452,0.3517,0.5132,0.4509,0.3807,-0.1214,-0.0895,-0.0458,850.3198,35.7,28.62,-10.2,-126.088,46.871,59.742,49.17440282,-121.6782209,0
8.519,-0.6029,-0.7452,0.3517,0.5132,0.4509,0.3807,-0.1214,-0.0895,-0.0458,850.2546,35.7,28.62,-10.2,-126.088,46.871,59.742,49.17440282,-121.6782209,0
8.523,-0.6029,-0.7452,0.3517,0.5132,0.4509,0.3807,-0.1214,-0.0895,-0.0458,850.2546,35.7,28.62,-10.2,-126.088,46.871,59.742,49.17440282,-121.6782209,0
8.543,-0.6029,-0.7452,0.3517,-0.066,-0.1011,0.2588,-0.1214,-0.0895,-0.0458,850.2546,35.7,28.62,-10.2,-126.088,46.871,59.742,49.17440282,-121.6782209,0
8.563,-0.5424,-0.817,0.2784,-0.066,-0.1011,0.2588,-0.1214,-0.0895,-0.0458,850.2546,35.7,28.62,-10.2,-149.076,53.27,62.824,49.17440282,-121.6782209,0
8.566,-0.5424,-0.817,0.2784,-0.066,-0.1011,0.2588,-0.1214,-0.0895,-0.0458,850.2546,35.7,28.32,-10.2,-149.448,53.27,62.824,49.17440282,-121.6782209,0
8.569,-0.5424,-0.817,0.2784,-0.066,-0.1011,0.2588,0.0863,-0.1076,-0.0096,850.2546,35.7,28.32,-10.2,-149.448,53.27,62.824,49.17440282,-121.6782209,0
8.598,-0.5424,-0.817,0.2784,0.4853,-0.8181,-0.5647,0.0863,-0.1076,-0.0096,850.2546,35.7,28.32,-10.2,-149.448,53.27,62.824,49.17440282,-121.6782209,0
8.622,-0.5922,-0.7178,0.3566,0.4853,-0.8181,-0.5647,0.0863,-0.1076,-0.0096,850.2546,35.7,28.32,-10.2,-122.534,46.079,58.943,49.17440282,-121.6782209,0
8.625,-0.5922,-0.7178,0.3566,0.4853,-0.8181,-0.5647,0.0863,-0.1076,-0.0096,850.2546,35.7,27.96,-10.2,-123.572,46.079,58.943,49.17440282,-121.6782209,0
8.628,-0.5922,-0.7178,0.3566,0.4853,-0.8181,-0.5647,-0.0138,0.0692,0.0639,850.2546,35.7,27.96,-10.2,-123.572,46.079,58.943,49.17440282,-121.6782209,0
8.665,-0.5922,-0.7178,0.3566,0.036,0.1378,0.2355,-0.0138,0.0692,0.0639,850.2546,35.7,27.96,-10.2,-123.572,46.079,58.943,49.17440282,-121.6782209,0
8.681,-0.7153,-0.732,0.3273,0.036,0.1378,0.2355,-0.0138,0.0692,0.0639,850.2546,35.7,27.96,-10.2,-129.117,42.939,65.413,49.17440282,-121.6782209,0
8.684,-0.7153,-0.732,0.3273,0.036,0.1378,0.2355,-0.0138,0.0692,0.0639,850.2546,35.7,27.6,-10.26,-131.088,42.939,65.413,49.17440282,-121.6782209,0
8.688,-0.7153,-0.732,0.3273,0.036,0.1378,0.2355,-0.0021,-0.1278,0.0256,850.2546,35.7,27.6,-10.26,-131.088,42.939,65.413,49.17440282,-121.6782209,0
8.697,-0.7153,-0.732,0.3273,0.036,0.1378,0.2355,-0.0021,-0.1278,0.0256,850.3086,35.7,27.6,-10.26,-131.088,42.939,65.413,49.17440282,-121.6782209,0
8.701,-0.7153,-0.732,0.3273,0.036,0.1378,0.2355,-0.0021,-0.1278,0.0256,850.3086,35.7,27.6,-10.26,-131.088,42.939,65.413,49.17440282,-121.6782209,0
8.718,-0.7153,-0.732,0.3273,-1.1344,-0.0357,-0.0626,-0.0021,-0.1278,0.0256,850.3086,35.7,27.6,-10.26,-131.088,42.939,65.413,49.17440282,-121.6782209,0
8.741,-0.6376,-0.7599,0.2716,-1.1344,-0.0357,-0.0626,-0.0021,-0.1278,0.0256,850.3086,35.7,27.6,-10.26,-152.215,47.631,66.928,49.17440282,-121.6782209,0
8.744,-0.6376,-0.7599,0.2716,-1.1344,-0.0357,-0.0626,-0.0021,-0.1278,0.0256,850.3086,35.64,27.3,-10.26,-152.772,47.631,66.928,49.17440282,-121.6782209,0
8.747,-0.6376,-0.7599,0.2716,-1.1344,-0.0357,-0.0626,-0.1385,-0.2184,0.1523,850.3086,35.64,27.3,-10.26,-152.772,47.631,66.928,49.17440282,-121.6782209,0
8.78,-0.6376,-0.7599,0.2716,-0.3517,-0.3181,-0.5907,-0.1385,-0.2184,0.1523,850.3086,35.64,27.3,-10.26,-152.772,47.631,66.928,49.17440282,-121.6782209,0
8.801,-0.5399,-0.6812,0.2819,-0.3517,-0.3181,-0.5907,-0.1385,-0.2184,0.1523,850.3086,35.64,27.3,-10.26,-140.248,48.199,62.433,49.17440282,-121.6782209,0
8.804,-0.5399,-0.6812,0.2819,-0.3517,-0.3181,-0.5907,-0.1385,-0.2184,0.1523,850.3086,35.52,26.94,-10.32,-141.23,48.199,62.433,49.17440282,-121.6782209,0
8.807,-0.5399,-0.6812,0.2819,-0.3517,-0.3181,-0.5907,-0.0501,-0.31,0.1864,850.3086,35.52,26.94,-10.32,-141.23,48.199,62.433,49.17440282,-121.6782209,0
8.838,-0.5399,-0.6812,0.2819,0.5708,0.4254,-0.6114,-0.0501,-0.31,0.1864,850.3086,35.52,26.94,-10.32,-141.23,48.199,62.433,49.17440282,-121.6782209,0
8.861,-0.6137,-0.7081,0.3283,0.5708,0.4254,-0.6114,-0.0501,-0.31,0.1864,850.3086,35.52,26.94,-10.32,-132.128,45.493,61.856,49.17440282,-121.6782209,0
8.866,-0.6137,-0.7081,0.3283,0.5708,0.4254,-0.6114,-0.0501,-0.31,0.1864,850.3086,35.46,26.58,-10.38,-133.385,45.493,61.856,49.17440282,-121.6782209,0
8.87,-0.6137,-0.7081,0.3283,0.5708,0.4254,-0.6114,-0.0053,-0.2557,0.0075,850.3086,35.46,26.58,-10.38,-133.385,45.493,61.856,49.17440282,-121.6782209,0
8.878,-0.6137,-0.7081,0.3283,0.5708,0.4254,-0.6114,-0.0053,-0.2557,0.0075,850.3499,35.46,26.58,-10.38,-133.385,45.493,61.856,49.17440282,-121.6782209,0
8.882,-0.6137,-0.7081,0.3283,0.5708,0.4254,-0.6114,-0.0053,-0.2557,0.0075,850.3499,35.46,26.58,-10.38,-133.385,45.493,61.856,49.17440282,-121.6782209,0
8.899,-0.6137,-0.7081,0.3283,-0.2258,0.168,-0.2692,-0.0053,-0.2557,0.0075,850.3499,35.46,26.58,-10.38,-133.385,45.493,61.856,49.17440282,-121.6782209,0
8.921,-0.6323,-0.8703,0.3615,-0.2258,0.168,-0.2692,-0.0053,-0.2557,0.0075,850.3499,35.46,26.58,-10.38,-140.712,50.075,60.24,49.17440282,-121.6782209,0
8.924,-0.6323,-0.8703,0.3615,-0.2258,0.168,-0.2692,-0.0053,-0.2557,0.0075,850.3499,35.34,26.28,-10.44,-141.438,50.075,60.24,49.17440282,-121.6782209,0
8.927,-0.6323,-0.8703,0.3615,-0.2258,0.168,-0.2692,0.327,-0.6509,-0.4272,850.3499,35.34,26.28,-10.44,-141.438,50.075,60.24,49.17440282,-121.6782209,0
8.959,-0.6323,-0.8703,0.3615,-0.8584,-1.2312,-0.2552,0.327,-0.6509,-0.4272,850.3499,35.34,26.28,-10.44,-141.438,50.075,60.24,49.17440282,-121.6782209,0
8.983,-0.4031,-0.817,0.4412,-0.8584,-1.2312,-0.2552,0.327,-0.6509,-0.4272,850.3499,35.34,26.28,-10.44,-117.576,53.817,42.419,49.17440282,-121.6782209,0
8.986,-0.4031,-0.817,0.4412,-0.8584,-1.2312,-0.2552,0.327,-0.6509,-0.4272,850.3499,35.28,25.92,-10.5,-118.189,53.817,42.419,49.17440282,-121.6782209,0
8.988,-0.4031,-0.817,0.4412,-0.8584,-1.2312,-0.2552,0.441,-0.4602,-0.3558,850.3499,35.28,25.92,-10.5,-118.189,53.817,42.419,49.17440282,-121.6782209,0
9.017,-0.4031,-0.817,0.4412,1.0327,-0.6669,0.1442,0.441,-0.4602,-0.3558,850.3499,35.28,25.92,-10.5,-118.189,53.817,42.419,49.17440282,-121.6782209,0
9.04,-0.4837,-1.0389,0.4089,1.0327,-0.6669,0.1442,0.441,-0.4602,-0.3558,850.3499,35.28,25.92,-10.5,-136.032,58.629,49.791,49.17440282,-121.6782209,0
9.044,-0.4837,-1.0389,0.4089,1.0327,-0.6669,0.1442,0.441,-0.4602,-0.3558,850.3499,35.16,25.68,-10.68,-136.724,58.629,49.791,49.17440282,-121.6782209,0
9.047,-0.4837,-1.0389,0.4089,1.0327,-0.6669,0.1442,0.5284,-0.6189,-0.4985,850.3499,35.16,25.68,-10.68,-136.724,58.629,49.791,49.17440282,-121.6782209,0
9.057,-0.4837,-1.0389,0.4089,1.0327,-0.6669,0.1442,0.5284,-0.6189,-0.4985,850.2771,35.16,25.68,-10.68,-136.724,58.629,49.791,49.17440282,-121.6782209,0
9.06,-0.4837,-1.0389,0.4089,1.0327,-0.6669,0.1442,0.5284,-0.6189,-0.4985,850.2771,35.16,25.68,-10.68,-136.724,58.629,49.791,49.17440282,-121.6782209,0
9.076,-0.4837,-1.0389,0.4089,-0.1491,-2.7583,-0.4645,0.5284,-0.6189,-0.4985,850.2771,35.16,25.68,-10.68,-136.724,58.629,49.791,49.17440282,-121.6782209,0
9.098,-0.4046,-0.6279,0.5037,-0.1491,-2.7583,-0.4645,0.5284,-0.6189,-0.4985,850.2771,35.16,25.68,-10.68,-97.516,44.185,38.771,49.17440282,-121.6782209,0
9.101,-0.4046,-0.6279,0.5037,-0.1491,-2.7583,-0.4645,0.5284,-0.6189,-0.4985,850.2771,35.04,25.44,-10.86,-98.186,44.185,38.771,49.17440282,-121.6782209,0
9.105,-0.4046,-0.6279,0.5037,-0.1491,-2.7583,-0.4645,0.7542,-0.2503,-0.4261,850.2771,35.04,25.44,-10.86,-98.186,44.185,38.771,49.17440282,-121.6782209,0
9.137,-0.4046,-0.6279,0.5037,0.5503,1.0448,0.0408,0.7542,-0.2503,-0.4261,850.2771,35.04,25.44,-10.86,-98.186,44.185,38.771,49.17440282,-121.6782209,0
9.157,-0.4862,-0.5131,0.3947,0.5503,1.0448,0.0408,0.7542,-0.2503,-0.4261,850.2771,35.04,25.44,-10.86,-97.923,39.329,50.926,49.17440282,-121.6782209,0
9.158,-0.4862,-0.5131,0.3947,0.5503,1.0448,0.0408,0.7542,-0.2503,-0.4261,850.2771,34.86,25.2,-11.16,-99.039,39.329,50.926,49.17440282,-121.6782209,0
9.16,-0.4862,-0.5131,0.3947,0.5503,1.0448,0.0408,0.4101,0.3494,0,850.2771,34.86,25.2,-11.16,-99.039,39.329,50.926,49.17440282,-121.6782209,0
9.195,-0.4862,-0.5131,0.3947,-0.0619,2.0819,-0.9792,0.4101,0.3494,0,850.2771,34.86,25.2,-11.16,-99.039,39.329,50.926,49.17440282,-121.6782209,0
9.226,-0.6738,-0.3787,0.47,-0.0619,2.0819,-0.9792,0.4101,0.3494,0,850.2771,34.86,25.2,-11.16,-52.627,24.751,55.104,49.17440282,-121.6782209,0
9.236,-0.6738,-0.3787,0.47,-0.0619,2.0819,-0.9792,0.4101,0.3494,0,850.2771,34.68,25.08,-11.4,-52.2,24.751,55.104,49.17440282,-121.6782209,0
9.243,-0.6738,-0.3787,0.47,-0.0619,2.0819,-0.9792,-0.5571,0.5284,-0.1949,850.2771,34.68,25.08,-11.4,-52.2,24.751,55.104,49.17440282,-121.6782209,0
9.244,-0.6738,-0.3787,0.47,-0.0619,2.0819,-0.9792,-0.5571,0.5284,-0.1949,850.353,34.68,25.08,-11.4,-52.2,24.751,55.104,49.17440282,-121.6782209,0
9.246,-0.6738,-0.3787,0.47,-0.0619,2.0819,-0.9792,-0.5571,0.5284,-0.1949,850.353,34.68,25.08,-11.4,-52.2,24.751,55.104,49.17440282,-121.6782209,0
9.255,-0.6738,-0.3787,0.47,-1.7032,3.5217,0.1517,-0.5571,0.5284,-0.1949,850.353,34.68,25.08,-11.4,-52.2,24.751,55.104,49.17440282,-121.6782209,0
9.276,-0.6948,-0.969,0.428,-1.7032,3.5217,0.1517,-0.5571,0.5284,-0.1949,850.353,34.68,25.08,-11.4,-142.375,49.897,58.369,49.17440282,-121.6782209,0
9.278,-0.6948,-0.969,0.428,-1.7032,3.5217,0.1517,-0.5571,0.5284,-0.1949,850.353,34.5,24.96,-11.7,-143.735,49.897,58.369,49.17440282,-121.6782209,0
9.279,-0.6948,-0.969,0.428,-1.7032,3.5217,0.1517,-0.7414,-0.3238,-0.0341,850.353,34.5,24.96,-11.7,-143.735,49.897,58.369,49.17440282,-121.6782209,0
9.327,-0.6948,-0.969,0.428,-1.9132,-2.0996,0.0116,-0.7414,-0.3238,-0.0341,850.353,34.5,24.96,-11.7,-143.735,49.897,58.369,49.17440282,-121.6782209,0
9.35,-0.5717,-0.8849,0.4729,-1.9132,-2.0996,0.0116,-0.7414,-0.3238,-0.0341,850.353,34.5,24.96,-11.7,-127.758,50.024,50.401,49.17440282,-121.6782209,0
9.36,-0.5717,-0.8849,0.4729,-1.9132,-2.0996,0.0116,-0.7414,-0.3238,-0.0341,850.353,34.32,24.9,-12,-128.728,50.024,50.401,49.17440282,-121.6782209,0
9.364,-0.5717,-0.8849,0.4729,-1.9132,-2.0996,0.0116,-0.4463,-0.343,0.6573,850.353,34.32,24.9,-12,-128.728,50.024,50.401,49.17440282,-121.6782209,0
9.374,-0.5717,-0.8849,0.4729,-0.4835,-1.3207,0.6447,-0.4463,-0.343,0.6573,850.353,34.32,24.9,-12,-128.728,50.024,50.401,49.17442383,-121.6782319,0
9.395,-0.4246,-0.8952,0.3498,-0.4835,-1.3207,0.6447,-0.4463,-0.343,0.6573,850.353,34.32,24.9,-12,-141.925,58.428,50.519,49.17442383,-121.6782319,0
9.397,-0.4246,-0.8952,0.3498,-0.4835,-1.3207,0.6447,-0.4463,-0.343,0.6573,850.353,34.2,24.84,-12.24,-142.65,58.428,50.519,49.17442383,-121.6782319,0
9.399,-0.4246,-0.8952,0.3498,-0.4835,-1.3207,0.6447,0.0107,-0.4613,0.4368,850.353,34.2,24.84,-12.24,-142.65,58.428,50.519,49.17442383,-121.6782319,0
9.419,-0.4246,-0.8952,0.3498,-0.4835,-1.3207,0.6447,0.0107,-0.4613,0.4368,850.3142,34.2,24.84,-12.24,-142.65,58.428,50.519,49.17442383,-121.6782319,0
9.423,-0.4246,-0.8952,0.3498,-0.4835,-1.3207,0.6447,0.0107,-0.4613,0.4368,850.3142,34.2,24.84,-12.24,-142.65,58.428,50.519,49.17442383,-121.6782319,0
9.436,-0.4246,-0.8952,0.3498,0.9208,-1.4203,-0.6073,0.0107,-0.4613,0.4368,850.3142,34.2,24.84,-12.24,-142.65,58.428,50.519,49.17442383,-121.6782319,0
9.459,-0.4583,-0.7071,0.3464,0.9208,-1.4203,-0.6073,0.0107,-0.4613,0.4368,850.3142,34.2,24.84,-12.24,-136,50.907,52.921,49.17442383,-121.6782319,0
9.463,-0.4583,-0.7071,0.3464,0.9208,-1.4203,-0.6073,0.0107,-0.4613,0.4368,850.3142,34.08,24.84,-12.48,-136.801,50.907,52.921,49.17442383,-121.6782319,0
9.468,-0.4583,-0.7071,0.3464,0.9208,-1.4203,-0.6073,0.0874,-0.0692,0.1395,850.3142,34.08,24.84,-12.48,-136.801,50.907,52.921,49.17442383,-121.6782319,0
9.499,-0.4583,-0.7071,0.3464,0.61,0.4172,-0.627,0.0874,-0.0692,0.1395,850.3142,34.08,24.84,-12.48,-136.801,50.907,52.921,49.17442383,-121.6782319,0
9.527,-0.4222,-0.5248,0.2868,0.61,0.4172,-0.627,0.0874,-0.0692,0.1395,850.3142,34.08,24.84,-12.48,-131.911,45.802,55.814,49.17442383,-121.6782319,0
9.533,-0.4222,-0.5248,0.2868,0.61,0.4172,-0.627,0.0874,-0.0692,0.1395,850.3142,33.9,24.9,-12.66,-132.456,45.802,55.814,49.17442383,-121.6782319,0
9.543,-0.4222,-0.5248,0.2868,0.61,0.4172,-0.627,0.0607,0.1726,0.1268,850.3142,33.9,24.9,-12.66,-132.456,45.802,55.814,49.17442383,-121.6782319,0
9.554,-0.4222,-0.5248,0.2868,1.0772,2.1446,-1.1731,0.0607,0.1726,0.1268,850.3142,33.9,24.9,-12.66,-132.456,45.802,55.814,49.17442383,-121.6782319,0
9.576,-0.6733,-0.8112,0.2091,1.0772,2.1446,-1.1731,0.0607,0.1726,0.1268,850.3142,33.9,24.9,-12.66,169.443,49.004,72.75,49.17442383,-121.6782319,0
9.577,-0.6733,-0.8112,0.2091,1.0772,2.1446,-1.1731,0.0607,0.1726,0.1268,850.3142,33.78,24.96,-12.9,168.031,49.004,72.75,49.17442383,-121.6782319,0
9.579,-0.6733,-0.8112,0.2091,1.0772,2.1446,-1.1731,-0.2557,0.2035,-0.0298,850.3142,33.78,24.96,-12.9,168.031,49.004,72.75,49.17442383,-121.6782319,0
9.595,-0.6733,-0.8112,0.2091,1.0772,2.1446,-1.1731,-0.2557,0.2035,-0.0298,850.3513,33.78,24.96,-12.9,168.031,49.004,72.75,49.17442383,-121.6782319,0
9.599,-0.6733,-0.8112,0.2091,1.0772,2.1446,-1.1731,-0.2557,0.2035,-0.0298,850.3513,33.78,24.96,-12.9,168.031,49.004,72.75,49.17442383,-121.6782319,0
9.618,-0.6733,-0.8112,0.2091,-1.2807,-0.5717,-1.6203,-0.2557,0.2035,-0.0298,850.3513,33.78,24.96,-12.9,168.031,49.004,72.75,49.17442383,-121.6782319,0
9.636,-0.6733,-0.8527,0.3889,-1.2807,-0.5717,-1.6203,-0.2557,0.2035,-0.0298,850.3513,33.78,24.96,-12.9,-149.101,47.639,59.991,49.17442383,-121.6782319,0
9.638,-0.6733,-0.8527,0.3889,-1.2807,-0.5717,-1.6203,-0.2557,0.2035,-0.0298,850.3513,33.66,24.96,-13.14,-150.327,47.639,59.991,49.17442383,-121.6782319,0
9.64,-0.6733,-0.8527,0.3889,-1.2807,-0.5717,-1.6203,-0.4293,0.2525,0.0937,850.3513,33.66,24.96,-13.14,-150.327,47.639,59.991,49.17442383,-121.6782319,0
9.678,-0.6733,-0.8527,0.3889,-1.1813,-0.9372,0.3786,-0.4293,0.2525,0.0937,850.3513,33.66,24.96,-13.14,-150.327,47.639,59.991,49.17442383,-121.6782319,0
9.695,-0.5443,-0.6582,0.5335,-1.1813,-0.9372,0.3786,-0.4293,0.2525,0.0937,850.3513,33.66,24.96,-13.14,-101.301,40.814,45.575,49.17442383,-121.6782319,0
9.697,-0.5443,-0.6582,0.5335,-1.1813,-0.9372,0.3786,-0.4293,0.2525,0.0937,850.3513,33.54,25.02,-13.32,-101.394,40.814,45.575,49.17442383,-121.6782319,0
9.699,-0.5443,-0.6582,0.5335,-1.1813,-0.9372,0.3786,-0.0831,0.4591,0.1289,850.3513,33.54,25.02,-13.32,-101.394,40.814,45.575,49.17442383,-121.6782319,0
9.733,-0.5443,-0.6582,0.5335,0.2666,0.8464,1.8292,-0.0831,0.4591,0.1289,850.3513,33.54,25.02,-13.32,-101.394,40.814,45.575,49.17442383,-121.6782319,0
9.755,-0.6181,-0.731,0.2428,0.2666,0.8464,1.8292,-0.0831,0.4591,0.1289,850.3513,33.54,25.02,-13.32,179.213,47.748,68.556,49.17442383,-121.6782319,0
9.756,-0.6181,-0.731,0.2428,0.2666,0.8464,1.8292,-0.0831,0.4591,0.1289,850.3513,33.48,25.08,-13.44,178.431,47.748,68.556,49.17442383,-121.6782319,0
9.758,-0.6181,-0.731,0.2428,0.2666,0.8464,1.8292,0.0117,0.0842,0.1619,850.3513,33.48,25.08,-13.44,178.431,47.748,68.556,49.17442383,-121.6782319,0
9.778,-0.6181,-0.731,0.2428,0.2666,0.8464,1.8292,0.0117,0.0842,0.1619,850.3494,33.48,25.08,-13.44,178.431,47.748,68.556,49.17442383,-121.6782319,0
9.783,-0.6181,-0.731,0.2428,0.2666,0.8464,1.8292,0.0117,0.0842,0.1619,850.3494,33.48,25.08,-13.44,178.431,47.748,68.556,49.17442383,-121.6782319,0
9.793,-0.6181,-0.731,0.2428,-0.3572,0.0937,-0.9378,0.0117,0.0842,0.1619,850.3494,33.48,25.08,-13.44,178.431,47.748,68.556,49.17442383,-121.6782319,0
9.817,-0.5546,-0.8512,0.2037,-0.3572,0.0937,-0.9378,0.0117,0.0842,0.1619,850.3494,33.48,25.08,-13.44,175.995,55.237,69.832,49.17442383,-121.6782319,0
9.819,-0.5546,-0.8512,0.2037,-0.3572,0.0937,-0.9378,0.0117,0.0842,0.1619,850.3494,33.36,25.08,-13.62,175.2,55.237,69.832,49.17442383,-121.6782319,0
9.821,-0.5546,-0.8512,0.2037,-0.3572,0.0937,-0.9378,0.1981,-0.1992,0.0927,850.3494,33.36,25.08,-13.62,175.2,55.237,69.832,49.17442383,-121.6782319,0
9.86,-0.5546,-0.8512,0.2037,0.2017,-1.1096,-1.4811,0.1981,-0.1992,0.0927,850.3494,33.36,25.08,-13.62,175.2,55.237,69.832,49.17442383,-121.6782319,0
9.886,-0.4969,-0.819,0.4001,0.2017,-1.1096,-1.4811,0.1981,-0.1992,0.0927,850.3494,33.36,25.08,-13.62,-138.904,52.082,51.159,49.17442383,-121.6782319,0
9.893,-0.4969,-0.819,0.4001,0.2017,-1.1096,-1.4811,0.1981,-0.1992,0.0927,850.3494,33.3,25.14,-13.68,-139.031,52.082,51.159,49.17442383,-121.6782319,0
9.9,-0.4969,-0.819,0.4001,0.2017,-1.1096,-1.4811,0.3537,0.179,-0.2397,850.3494,33.3,25.14,-13.68,-139.031,52.082,51.159,49.17442383,-121.6782319,0
9.913,-0.4969,-0.819,0.4001,0.6033,-0.7637,0.2502,0.3537,0.179,-0.2397,850.3494,33.3,25.14,-13.68,-139.031,52.082,51.159,49.17442383,-121.6782319,0
9.938,-0.4867,-1.097,0.404,0.6033,-0.7637,0.2502,0.3537,0.179,-0.2397,850.3494,33.3,25.14,-13.68,-148.019,60.033,50.301,49.17442383,-121.6782319,0
9.939,-0.4867,-1.097,0.404,0.6033,-0.7637,0.2502,0.3537,0.179,-0.2397,850.3494,33.24,25.2,-13.74,-148.167,60.033,50.301,49.17442383,-121.6782319,0
9.941,-0.4867,-1.097,0.404,0.6033,-0.7637,0.2502,0.9257,0.7702,-0.1981,850.3494,33.24,25.2,-13.74,-148.167,60.033,50.301,49.17442383,-121.6782319,0
9.955,-0.4867,-1.097,0.404,0.6033,-0.7637,0.2502,0.9257,0.7702,-0.1981,850.1306,33.24,25.2,-13.74,-148.167,60.033,50.301,49.17442383,-121.6782319,0
9.957,-0.4867,-1.097,0.404,0.6033,-0.7637,0.2502,0.9257,0.7702,-0.1981,850.1306,33.24,25.2,-13.74,-148.167,60.033,50.301,49.17442383,-121.6782319,0
9.979,-0.4867,-1.097,0.404,0.607,-3.5224,0.0838,0.9257,0.7702,-0.1981,850.1306,33.24,25.2,-13.74,-148.167,60.033,50.301,49.17442383,-121.6782319,0
10.004,-0.8248,-0.3284,0.3043,0.607,-3.5224,0.0838,0.9257,0.7702,-0.1981,850.1306,33.24,25.2,-13.74,7.148,20.484,69.746,49.17442383,-121.6782319,0
10.011,-0.8248,-0.3284,0.3043,0.607,-3.5224,0.0838,0.9257,0.7702,-0.1981,850.1306,33.24,25.26,-13.74,7.112,20.484,69.746,49.17442383,-121.6782319,0
10.014,-0.8248,-0.3284,0.3043,0.607,-3.5224,0.0838,0.6285,1.1356,-0.1662,850.1306,33.24,25.26,-13.74,7.112,20.484,69.746,49.17442383,-121.6782319,0
10.034,-0.8248,-0.3284,0.3043,-2.2274,3.7877,-0.595,0.6285,1.1356,-0.1662,850.1306,33.24,25.26,-13.74,7.112,20.484,69.746,49.17442383,-121.6782319,0
10.057,-0.903,-0.5566,0.2887,-2.2274,3.7877,-0.595,0.6285,1.1356,-0.1662,850.1306,33.24,25.26,-13.74,39.202,30.418,72.269,49.17442383,-121.6782319,0
10.058,-0.903,-0.5566,0.2887,-2.2274,3.7877,-0.595,0.6285,1.1356,-0.1662,850.1306,33.3,25.32,-13.62,37.611,30.418,72.269,49.17442383,-121.6782319,0
10.06,-0.903,-0.5566,0.2887,-2.2274,3.7877,-0.595,-0.6605,0.3388,-0.2407,850.1306,33.3,25.32,-13.62,37.611,30.418,72.269,49.17442383,-121.6782319,0
10.102,-0.903,-0.5566,0.2887,-2.8608,1.6618,-0.2803,-0.6605,0.3388,-0.2407,850.1306,33.3,25.32,-13.62,37.611,30.418,72.269,49.17442383,-121.6782319,0
10.115,-0.7192,-0.777,0.4153,-2.8608,1.6618,-0.2803,-0.6605,0.3388,-0.2407,850.1306,33.3,25.32,-13.62,-140.377,43.092,60,49.17442383,-121.6782319,0
10.117,-0.7192,-0.777,0.4153,-2.8608,1.6618,-0.2803,-0.6605,0.3388,-0.2407,850.1306,33.48,25.38,-13.26,-137.83,43.092,60,49.17442383,-121.6782319,0
10.118,-0.7192,-0.777,0.4153,-2.8608,1.6618,-0.2803,-0.8256,0.049,0.3888,850.1306,33.48,25.38,-13.26,-137.83,43.092,60,49.17442383,-121.6782319,0
10.133,-0.7192,-0.777,0.4153,-2.8608,1.6618,-0.2803,-0.8256,0.049,0.3888,850.304,33.48,25.38,-13.26,-137.83,43.092,60,49.17442383,-121.6782319,0
10.135,-0.7192,-0.777,0.4153,-2.8608,1.6618,-0.2803,-0.8256,0.049,0.3888,850.304,33.48,25.38,-13.26,-137.83,43.092,60,49.17442383,-121.6782319,0
10.158,-0.7192,-0.777,0.4153,-0.8895,-0.5075,1.2888,-0.8256,0.049,0.3888,850.304,33.48,25.38,-13.26,-137.83,43.092,60,49.17442383,-121.6782319,0
10.182,-0.8023,-0.9675,0.3097,-0.8895,-0.5075,1.2888,-0.8256,0.049,0.3888,850.304,33.48,25.38,-13.26,178.217,48.367,68.892,49.17442383,-121.6782319,0
10.187,-0.8023,-0.9675,0.3097,-0.8895,-0.5075,1.2888,-0.8256,0.049,0.3888,850.304,33.72,25.44,-12.9,-179.379,48.367,68.892,49.17442383,-121.6782319,0
10.199,-0.8023,-0.9675,0.3097,-0.8895,-0.5075,1.2888,-0.278,-0.0724,-0.3079,850.304,33.72,25.44,-12.9,-179.379,48.367,68.892,49.17442383,-121.6782319,0
10.213,-0.8023,-0.9675,0.3097,-1.8564,-2.1892,0.4052,-0.278,-0.0724,-0.3079,850.304,33.72,25.44,-12.9,-179.379,48.367,68.892,49.17442383,-121.6782319,0
10.234,-0.3909,-0.8165,0.361,-1.8564,-2.1892,0.4052,-0.278,-0.0724,-0.3079,850.304,33.72,25.44,-12.9,-136.65,56.909,47.275,49.17442383,-121.6782319,0
10.236,-0.3909,-0.8165,0.361,-1.8564,-2.1892,0.4052,-0.278,-0.0724,-0.3079,850.304,33.96,25.44,-12.48,-135.476,56.909,47.275,49.17442383,-121.6782319,0
10.24,-0.3909,-0.8165,0.361,-1.8564,-2.1892,0.4052,-0.1076,-0.3164,-0.3281,850.304,33.96,25.44,-12.48,-135.476,56.909,47.275,49.17442383,-121.6782319,0
10.279,-0.3909,-0.8165,0.361,1.8703,-0.5151,0.7784,-0.1076,-0.3164,-0.3281,850.304,33.96,25.44,-12.48,-135.476,56.909,47.275,49.17442383,-121.6782319,0
10.305,-0.2228,-0.6656,0.3845,1.8703,-0.5151,0.7784,-0.1076,-0.3164,-0.3281,850.304,33.96,25.44,-12.48,-111.298,56.27,30.093,49.17442383,-121.6782319,0
10.325,-0.2228,-0.6656,0.3845,1.8703,-0.5151,0.7784,-0.1076,-0.3164,-0.3281,850.304,34.14,25.5,-12.12,-110.555,56.27,30.093,49.17442383,-121.6782319,0
10.332,-0.2228,-0.6656,0.3845,1.8703,-0.5151,0.7784,0.2589,-0.1182,-0.0565,850.304,34.14,25.5,-12.12,-110.555,56.27,30.093,49.17442383,-121.6782319,0
10.334,-0.2228,-0.6656,0.3845,1.8703,-0.5151,0.7784,0.2589,-0.1182,-0.0565,850.2786,34.14,25.5,-12.12,-110.555,56.27,30.093,49.17442383,-121.6782319,0
10.336,-0.2228,-0.6656,0.3845,1.8703,-0.5151,0.7784,0.2589,-0.1182,-0.0565,850.2786,34.14,25.5,-12.12,-110.555,56.27,30.093,49.17442383,-121.6782319,0
10.337,-0.2228,-0.6656,0.3845,3.321,1.019,0.7682,0.2589,-0.1182,-0.0565,850.2786,34.14,25.5,-12.12,-110.555,56.27,30.093,49.17442383,-121.6782319,0
10.354,-0.5668,-0.7916,0.1353,3.321,1.019,0.7682,0.2589,-0.1182,-0.0565,850.2786,34.14,25.5,-12.12,164.461,53.643,76.576,49.17442383,-121.6782319,0
10.356,-0.5668,-0.7916,0.1353,3.321,1.019,0.7682,0.2589,-0.1182,-0.0565,850.2786,34.26,25.5,-11.76,165.944,53.643,76.576,49.17442383,-121.6782319,0
10.358,-0.5668,-0.7916,0.1353,3.321,1.019,0.7682,0.2983,0.3174,-0.2131,850.2786,34.26,25.5,-11.76,165.944,53.643,76.576,49.17442383,-121.6782319,0
10.396,-0.5668,-0.7916,0.1353,-0.075,-0.1578,-1.5698,0.2983,0.3174,-0.2131,850.2786,34.26,25.5,-11.76,165.944,53.643,76.576,49.17442383,-121.6782319,0
10.427,-0.9269,-0.7975,0.3244,-0.075,-0.1578,-1.5698,0.2983,0.3174,-0.2131,850.2786,34.26,25.5,-11.76,-175.92,39.079,70.712,49.17442383,-121.6782319,0
10.434,-0.9269,-0.7975,0.3244,-0.075,-0.1578,-1.5698,0.2983,0.3174,-0.2131,850.2786,34.44,25.5,-11.4,-168.658,39.079,70.712,49.17442383,-121.6782319,0
10.436,-0.9269,-0.7975,0.3244,-0.075,-0.1578,-1.5698,0.0341,0.0618,0.1832,850.2786,34.44,25.5,-11.4,-168.658,39.079,70.712,49.17442383,-121.6782319,0
10.453,-0.9269,-0.7975,0.3244,-3.3616,-0.3828,0.3174,0.0341,0.0618,0.1832,850.2786,34.44,25.5,-11.4,-168.658,39.079,70.712,49.17442383,-121.6782319,0
10.476,-0.6196,-0.7833,0.2902,-3.3616,-0.3828,0.3174,0.0341,0.0618,0.1832,850.2786,34.44,25.5,-11.4,-157.531,48.866,64.904,49.17442383,-121.6782319,0
10.478,-0.6196,-0.7833,0.2902,-3.3616,-0.3828,0.3174,0.0341,0.0618,0.1832,850.2786,34.62,25.5,-11.04,-155.673,48.866,64.904,49.17442383,-121.6782319,0
10.48,-0.6196,-0.7833,0.2902,-3.3616,-0.3828,0.3174,-0.0202,-0.0383,0.2887,850.2786,34.62,25.5,-11.04,-155.673,48.866,64.904,49.17442383,-121.6782319,0
10.492,-0.6196,-0.7833,0.2902,-3.3616,-0.3828,0.3174,-0.0202,-0.0383,0.2887,850.2915,34.62,25.5,-11.04,-155.673,48.866,64.904,49.17442383,-121.6782319,0
10.495,-0.6196,-0.7833,0.2902,-3.3616,-0.3828,0.3174,-0.0202,-0.0383,0.2887,850.2915,34.62,25.5,-11.04,-155.673,48.866,64.904,49.17442383,-121.6782319,0
10.515,-0.6196,-0.7833,0.2902,-0.2375,-0.3293,-0.0117,-0.0202,-0.0383,0.2887,850.2915,34.62,25.5,-11.04,-155.673,48.866,64.904,49.17442383,-121.6782319,0
10.543,-0.452,-0.7809,0.1968,-0.2375,-0.3293,-0.0117,-0.0202,-0.0383,0.2887,850.2915,34.62,25.5,-11.04,-167.681,57.735,66.465,49.17442383,-121.6782319,0
10.545,-0.452,-0.7809,0.1968,-0.2375,-0.3293,-0.0117,-0.0202,-0.0383,0.2887,850.2915,34.8,25.5,-10.68,-166.405,57.735,66.465,49.17442383,-121.6782319,0
10.547,-0.452,-0.7809,0.1968,-0.2375,-0.3293,-0.0117,-0.0671,-0.0724,0.0991,850.2915,34.8,25.5,-10.68,-166.405,57.735,66.465,49.17442383,-121.6782319,0
10.573,-0.452,-0.7809,0.1968,1.3611,-0.2505,-0.8731,-0.0671,-0.0724,0.0991,850.2915,34.8,25.5,-10.68,-166.405,57.735,66.465,49.17442383,-121.6782319,0
10.594,-0.4925,-0.7061,0.2604,1.3611,-0.2505,-0.8731,-0.0671,-0.0724,0.0991,850.2915,34.8,25.5,-10.68,-150.939,51.727,62.137,49.17442383,-121.6782319,0
10.596,-0.4925,-0.7061,0.2604,1.3611,-0.2505,-0.8731,-0.0671,-0.0724,0.0991,850.2915,34.98,25.5,-10.32,-149.509,51.727,62.137,49.17442383,-121.6782319,0
10.597,-0.4925,-0.7061,0.2604,1.3611,-0.2505,-0.8731,-0.0788,0.0192,-0.1662,850.2915,34.98,25.5,-10.32,-149.509,51.727,62.137,49.17442383,-121.6782319,0
10.632,-0.4925,-0.7061,0.2604,0.861,0.5752,-0.2132,-0.0788,0.0192,-0.1662,850.2915,34.98,25.5,-10.32,-149.509,51.727,62.137,49.17442383,-121.6782319,0
10.665,-0.7407,-0.7545,0.2413,0.861,0.5752,-0.2132,-0.0788,0.0192,-0.1662,850.2915,34.98,25.5,-10.32,-171.739,44.082,71.956,49.17442383,-121.6782319,0
10.666,-0.7407,-0.7545,0.2413,0.861,0.5752,-0.2132,-0.0788,0.0192,-0.1662,850.2915,35.16,25.5,-9.96,-168.662,44.082,71.956,49.17442383,-121.6782319,0
10.669,-0.7407,-0.7545,0.2413,0.861,0.5752,-0.2132,0.0767,-0.0714,-0.2301,850.2915,35.16,25.5,-9.96,-168.662,44.082,71.956,49.17442383,-121.6782319,0
10.67,-0.7407,-0.7545,0.2413,0.861,0.5752,-0.2132,0.0767,-0.0714,-0.2301,850.3096,35.16,25.5,-9.96,-168.662,44.082,71.956,49.17442383,-121.6782319,0
10.673,-0.7407,-0.7545,0.2413,0.861,0.5752,-0.2132,0.0767,-0.0714,-0.2301,850.3096,35.16,25.5,-9.96,-168.662,44.082,71.956,49.17442383,-121.6782319,0
10.694,-0.7407,-0.7545,0.2413,-1.6042,0.122,-0.4103,0.0767,-0.0714,-0.2301,850.3096,35.16,25.5,-9.96,-168.662,44.082,71.956,49.17442383,-121.6782319,0
10.718,-0.6372,-0.7037,0.3302,-1.6042,0.122,-0.4103,0.0767,-0.0714,-0.2301,850.3096,35.16,25.5,-9.96,-133.059,44.436,62.602,49.17442383,-121.6782319,0
10.722,-0.6372,-0.7037,0.3302,-1.6042,0.122,-0.4103,0.0767,-0.0714,-0.2301,850.3096,35.34,25.5,-9.66,-131.796,44.436,62.602,49.17442383,-121.6782319,0
10.725,-0.6372,-0.7037,0.3302,-1.6042,0.122,-0.4103,-0.2344,-0.2109,0.0842,850.3096,35.34,25.5,-9.66,-131.796,44.436,62.602,49.17442383,-121.6782319,0
10.756,-0.6372,-0.7037,0.3302,-0.5529,0.5924,0.4604,-0.2344,-0.2109,0.0842,850.3096,35.34,25.5,-9.66,-131.796,44.436,62.602,49.17442383,-121.6782319,0
10.786,-0.5057,-0.7242,0.3503,-0.5529,0.5924,0.4604,-0.2344,-0.2109,0.0842,850.3096,35.34,25.5,-9.66,-128.887,49.653,55.292,49.17442383,-121.6782319,0
10.794,-0.5057,-0.7242,0.3503,-0.5529,0.5924,0.4604,-0.2344,-0.2109,0.0842,850.3096,35.52,25.56,-9.36,-127.939,49.653,55.292,49.17442383,-121.6782319,0
10.803,-0.5057,-0.7242,0.3503,-0.5529,0.5924,0.4604,-0.1779,-0.2439,0.163,850.3096,35.52,25.56,-9.36,-127.939,49.653,55.292,49.17442383,-121.6782319,0
10.817,-0.5057,-0.7242,0.3503,0.7256,0.3757,0.5958,-0.1779,-0.2439,0.163,850.3096,35.52,25.56,-9.36,-127.939,49.653,55.292,49.17442383,-121.6782319,0
10.839,-0.6127,-0.924,0.2765,0.7256,0.3757,0.5958,-0.1779,-0.2439,0.163,850.3096,35.52,25.56,-9.36,-156.911,53.965,65.712,49.17442383,-121.6782319,0
10.845,-0.6127,-0.924,0.2765,0.7256,0.3757,0.5958,-0.1779,-0.2439,0.163,850.3096,35.64,25.56,-9.06,-155.805,53.965,65.712,49.17442383,-121.6782319,0
10.851,-0.6127,-0.924,0.2765,0.7256,0.3757,0.5958,-0.3164,-0.065,0.0842,850.3096,35.64,25.56,-9.06,-155.805,53.965,65.712,49.17442383,-121.6782319,0
