
time,gFx,gFy,gFz,ax,ay,az,wx,wy,wz,Latitude,Longitude,Speed (m/s),
0.0920,-0.2478,0.3059,0.9721,0.0000,0.0000,0.0000,0.0000,0.0000,0.0000,0.00000000,0.00000000,0.00000000,
0.1090,-0.2478,0.3059,0.9721,0.0000,0.0000,0.0000,-0.5944,2.9000,1.6391,49.27908382,-122.98361164,0.00000000,
0.1470,-0.2429,0.3529,0.8810,0.0000,0.0000,0.0000,-0.5944,2.9000,1.6391,49.27908382,-122.98361164,0.00000000,
0.1670,-0.2429,0.3529,0.8810,0.0000,0.0000,0.0000,0.3027,2.4340,1.5787,49.27908382,-122.98361164,0.00000000,
0.1870,-0.2429,0.3529,0.8810,0.0000,0.0000,0.0000,0.3027,2.4340,1.5787,49.27908382,-122.98361164,0.00000000,
0.2240,-0.4559,0.2839,0.9468,0.0000,0.0000,0.0000,0.3027,2.4340,1.5787,49.27908382,-122.98361164,0.00000000,
0.2430,-0.4559,0.2839,0.9468,0.0000,0.0000,0.0000,1.3619,3.4212,2.1303,49.27908382,-122.98361164,0.00000000,
0.2630,-0.4559,0.2839,0.9468,-0.3174,-0.6278,0.2922,1.3619,3.4212,2.1303,49.27908382,-122.98361164,0.00000000,
0.2810,-0.6080,0.2957,0.8021,-0.3174,-0.6278,0.2922,1.3619,3.4212,2.1303,49.27908382,-122.98361164,0.00000000,
0.2990,-0.6080,0.2957,0.8021,-0.3174,-0.6278,0.2922,1.2712,2.5949,1.4772,49.27908382,-122.98361164,0.00000000,
0.3200,-0.6080,0.2957,0.8021,-0.0256,-0.9183,0.5043,1.2712,2.5949,1.4772,49.27908382,-122.98361164,0.00000000,
0.3630,-0.8584,0.1772,0.8197,-0.0256,-0.9183,0.5043,1.2712,2.5949,1.4772,49.27908382,-122.98361164,0.00000000,
0.3760,-0.8584,0.1772,0.8197,-0.0256,-0.9183,0.5043,1.0432,2.8148,0.8392,49.27908386,-122.98361161,0.00000000,
0.3970,-0.8584,0.1772,0.8197,-1.1869,-2.0090,1.2314,1.0432,2.8148,0.8392,49.27908386,-122.98361161,0.00000000,
0.4150,-0.9111,0.1181,0.7019,-1.1869,-2.0090,1.2314,1.0432,2.8148,0.8392,49.27908386,-122.98361161,0.00000000,
0.4340,-0.9111,0.1181,0.7019,-1.1869,-2.0090,1.2314,0.8881,2.3897,0.0367,49.27908386,-122.98361161,0.00000000,
0.4530,-0.9111,0.1181,0.7019,-1.2598,-2.4875,1.8121,0.8881,2.3897,0.0367,49.27908386,-122.98361161,0.00000000,
0.4900,-0.7709,0.3245,0.6678,-1.2598,-2.4875,1.8121,0.8881,2.3897,0.0367,49.27908386,-122.98361161,0.00000000,
0.5100,-0.7709,0.3245,0.6678,-1.2598,-2.4875,1.8121,-0.1391,2.1281,0.3971,49.27908386,-122.98361161,0.00000000,
0.5310,-0.7709,0.3245,0.6678,-0.4495,-1.6933,1.3781,-0.1391,2.1281,0.3971,49.27908386,-122.98361161,0.00000000,
0.5480,-0.7246,0.5977,0.4378,-0.4495,-1.6933,1.3781,-0.1391,2.1281,0.3971,49.27908386,-122.98361161,0.00000000,
0.5660,-0.7246,0.5977,0.4378,-0.4495,-1.6933,1.3781,-0.3401,1.0351,-0.1552,49.27908386,-122.98361161,0.00000000,
0.5860,-0.7246,0.5977,0.4378,1.8154,1.4628,0.4856,-0.3401,1.0351,-0.1552,49.27908386,-122.98361161,0.00000000,
0.6250,-0.7436,0.5069,0.1952,1.8154,1.4628,0.4856,-0.3401,1.0351,-0.1552,49.27908386,-122.98361161,0.00000000,
0.6420,-0.7436,0.5069,0.1952,1.8154,1.4628,0.4856,0.2254,0.2236,0.0437,49.27908386,-122.98361161,0.00000000,
0.6630,-0.7436,0.5069,0.1952,0.5297,1.6129,-1.8558,0.2254,0.2236,0.0437,49.27908386,-122.98361161,0.00000000,
0.6810,-0.7342,0.4987,0.2402,0.5297,1.6129,-1.8558,0.2254,0.2236,0.0437,49.27908386,-122.98361161,0.00000000,
0.6990,-0.7342,0.4987,0.2402,0.5297,1.6129,-1.8558,0.1039,-0.5224,0.2809,49.27908386,-122.98361161,0.00000000,
0.7210,-0.7342,0.4987,0.2402,0.8361,0.3625,-2.9834,0.1039,-0.5224,0.2809,49.27908386,-122.98361161,0.00000000,
0.7570,-0.7398,0.5537,0.3651,0.8361,0.3625,-2.9834,0.1039,-0.5224,0.2809,49.27908386,-122.98361161,0.00000000,
0.7760,-0.7398,0.5537,0.3651,0.8361,0.3625,-2.9834,0.3985,-1.3012,0.0163,49.27908386,-122.98361161,0.00000000,
0.7950,-0.7398,0.5537,0.3651,0.0682,0.8641,-1.6007,0.3985,-1.3012,0.0163,49.27908386,-122.98361161,0.00000000,
0.8160,-0.7059,0.5977,0.2836,0.0682,0.8641,-1.6007,0.3985,-1.3012,0.0163,49.27908386,-122.98361161,0.00000000,
0.8330,-0.7059,0.5977,0.2836,0.0682,0.8641,-1.6007,0.5018,-1.0793,-0.2570,49.27908386,-122.98361161,0.00000000,
0.8530,-0.7059,0.5977,0.2836,0.1007,1.2653,-2.3731,0.5018,-1.0793,-0.2570,49.27908386,-122.98361161,0.00000000,
0.8900,-0.7189,0.5555,0.3230,0.1007,1.2653,-2.3731,0.5018,-1.0793,-0.2570,49.27908386,-122.98361161,0.00000000,
0.9090,-0.7189,0.5555,0.3230,0.1007,1.2653,-2.3731,0.3048,-1.3232,-0.2765,49.27908386,-122.98361161,0.00000000,
0.9290,-0.7189,0.5555,0.3230,-0.0455,0.9077,-2.5138,0.3048,-1.3232,-0.2765,49.27908386,-122.98361161,0.00000000,
0.9480,-0.8164,0.4981,0.4186,-0.0455,0.9077,-2.5138,0.3048,-1.3232,-0.2765,49.27908386,-122.98361161,0.00000000,
0.9660,-0.8164,0.4981,0.4186,-0.0455,0.9077,-2.5138,0.2306,0.5791,0.1177,49.27908386,-122.98361161,0.00000000,
0.9870,-0.8164,0.4981,0.4186,-1.1421,0.4382,-0.8227,0.2306,0.5791,0.1177,49.27908386,-122.98361161,0.00000000,
1.0230,-0.8215,0.4866,0.3721,-1.1421,0.4382,-0.8227,0.2306,0.5791,0.1177,49.27908386,-122.98361161,0.00000000,
1.0420,-0.8215,0.4866,0.3721,-1.1421,0.4382,-0.8227,0.4608,1.1903,0.4628,49.27908386,-122.98361161,0.00000000,
1.0620,-0.8215,0.4866,0.3721,-0.2833,-0.9553,0.1405,0.4608,1.1903,0.4628,49.27908386,-122.98361161,0.00000000,
1.0810,-0.7092,0.4646,0.3119,-0.2833,-0.9553,0.1405,0.4608,1.1903,0.4628,49.27908386,-122.98361161,0.00000000,
1.1000,-0.7092,0.4646,0.3119,-0.2833,-0.9553,0.1405,-0.0139,2.3862,1.1702,49.27908386,-122.98361161,0.00000000,
1.1190,-0.7092,0.4646,0.3119,-0.7555,-1.1688,0.0801,-0.0139,2.3862,1.1702,49.27908386,-122.98361161,0.00000000,
1.1560,-0.6729,0.7537,0.1875,-0.7555,-1.1688,0.0801,-0.0139,2.3862,1.1702,49.27908386,-122.98361161,0.00000000,
1.1770,-0.6729,0.7537,0.1875,-0.7555,-1.1688,0.0801,0.4160,0.8882,1.6990,49.27908386,-122.98361161,0.00000000,
1.1950,-0.6729,0.7537,0.1875,0.9753,-1.0299,0.2458,0.4160,0.8882,1.6990,49.27908386,-122.98361161,0.00000000,
1.2150,-0.5404,0.8375,0.2069,0.9753,-1.0299,0.2458,0.4160,0.8882,1.6990,49.27908386,-122.98361161,0.00000000,
1.2320,-0.5404,0.8375,0.2069,0.9753,-1.0299,0.2458,0.8277,0.1482,0.9909,49.27908386,-122.98361161,0.00000000,
1.2520,-0.5404,0.8375,0.2069,-0.5404,1.4410,-0.6247,0.8277,0.1482,0.9909,49.27908386,-122.98361161,0.00000000,
1.2900,-0.6222,1.0317,-0.1625,-0.5404,1.4410,-0.6247,0.8277,0.1482,0.9909,49.27908386,-122.98361161,0.00000000,
1.3090,-0.6222,1.0317,-0.1625,-0.5404,1.4410,-0.6247,0.8835,-1.1752,0.5483,49.27908386,-122.98361161,0.00000000,
1.3280,-0.6222,1.0317,-0.1625,0.9096,1.8199,-2.0163,0.8835,-1.1752,0.5483,49.27908386,-122.98361161,0.00000000,
1.3460,-0.5820,0.8883,0.0203,0.9096,1.8199,-2.0163,0.8835,-1.1752,0.5483,49.27908386,-122.98361161,0.00000000,
1.3660,-0.5820,0.8883,0.0203,0.9096,1.8199,-2.0163,-0.1022,0.1787,0.7286,49.27908386,-122.98361161,0.00000000,
1.3850,-0.5820,0.8883,0.0203,-0.9767,1.3205,-2.1500,-0.1022,0.1787,0.7286,49.27908386,-122.98361161,0.00000000,
1.4230,-0.5413,0.7850,0.1457,-0.9767,1.3205,-2.1500,-0.1022,0.1787,0.7286,49.27908386,-122.98361161,0.00000000,
1.4430,-0.5413,0.7850,0.1457,-0.9767,1.3205,-2.1500,0.1503,0.2525,0.6740,49.27908386,-122.98361161,0.00000000,
1.4620,-0.5413,0.7850,0.1457,0.3256,-0.5392,-0.1044,0.1503,0.2525,0.6740,49.27908386,-122.98361161,0.00000000,
1.4800,-0.5098,0.8567,-0.1034,0.3256,-0.5392,-0.1044,0.1503,0.2525,0.6740,49.27908386,-122.98361161,0.00000000,
1.5090,-0.5098,0.8567,-0.1034,0.3256,-0.5392,-0.1044,-0.1326,-1.2122,0.4776,49.27908386,-122.98361161,0.00000000,
1.5290,-0.5098,0.8567,-0.1034,-0.5361,0.4569,-3.2796,-0.1326,-1.2122,0.4776,49.27908386,-122.98361161,0.00000000,
1.5460,-0.3749,0.8611,0.2556,-0.5361,0.4569,-3.2796,-0.1326,-1.2122,0.4776,49.27908386,-122.98361161,0.00000000,
1.5660,-0.3749,0.8611,0.2556,-0.5361,0.4569,-3.2796,0.1753,-0.6051,0.1757,49.27908386,-122.98361161,0.00000000,
1.5860,-0.3749,0.8611,0.2556,0.4262,-0.0539,-0.3701,0.1753,-0.6051,0.1757,49.27908386,-122.98361161,0.00000000,
1.6230,-0.6082,0.8735,0.2299,0.4262,-0.0539,-0.3701,0.1753,-0.6051,0.1757,49.27908386,-122.98361161,0.00000000,
1.6440,-0.6082,0.8735,0.2299,0.4262,-0.0539,-0.3701,0.8144,-0.2388,0.2582,49.27908386,-122.98361161,0.00000000,
1.6610,-0.6082,0.8735,0.2299,-0.1307,-0.1507,0.8764,0.8144,-0.2388,0.2582,49.27908386,-122.98361161,0.00000000,
1.6800,0.0183,1.0383,-0.2864,-0.1307,-0.1507,0.8764,0.8144,-0.2388,0.2582,49.27908386,-122.98361161,0.00000000,
1.7010,0.0183,1.0383,-0.2864,-0.1307,-0.1507,0.8764,-0.8609,1.8947,-0.8902,49.27908386,-122.98361161,0.00000000,
1.7190,0.0183,1.0383,-0.2864,3.2181,1.2885,-2.4843,-0.8609,1.8947,-0.8902,49.27908386,-122.98361161,0.00000000,
1.7570,-0.8676,0.7088,0.0087,3.2181,1.2885,-2.4843,-0.8609,1.8947,-0.8902,49.27908386,-122.98361161,0.00000000,
1.7770,-0.8676,0.7088,0.0087,3.2181,1.2885,-2.4843,-1.3205,0.9936,-0.5277,49.27908386,-122.98361161,0.00000000,
1.7940,-0.8676,0.7088,0.0087,0.2148,0.3498,-3.8437,-1.3205,0.9936,-0.5277,49.27908386,-122.98361161,0.00000000,
1.8130,-0.5075,0.8472,0.1581,0.2148,0.3498,-3.8437,-1.3205,0.9936,-0.5277,49.27908386,-122.98361161,0.00000000,
1.8330,-0.5075,0.8472,0.1581,0.2148,0.3498,-3.8437,-0.7967,0.7472,-0.7267,49.27908386,-122.98361161,0.00000000,
1.8520,-0.5075,0.8472,0.1581,1.2873,0.5985,0.9242,-0.7967,0.7472,-0.7267,49.27908386,-122.98361161,0.00000000,
1.8890,-0.6057,0.8061,-0.0350,1.2873,0.5985,0.9242,-0.7967,0.7472,-0.7267,49.27908386,-122.98361161,0.00000000,
1.9090,-0.6057,0.8061,-0.0350,1.2873,0.5985,0.9242,-0.9705,0.7438,-0.9572,49.27908386,-122.98361161,0.00000000,
1.9270,-0.6057,0.8061,-0.0350,0.4483,0.8022,-1.0477,-0.9705,0.7438,-0.9572,49.27908386,-122.98361161,0.00000000,
1.9470,-0.8315,0.6162,0.1251,0.4483,0.8022,-1.0477,-0.9705,0.7438,-0.9572,49.27908386,-122.98361161,0.00000000,
1.9650,-0.8315,0.6162,0.1251,0.4483,0.8022,-1.0477,-0.8923,-1.5785,-0.4127,49.27908386,-122.98361161,0.00000000,
1.9860,-0.8315,0.6162,0.1251,-0.3045,-0.0903,-3.9806,-0.8923,-1.5785,-0.4127,49.27908386,-122.98361161,0.00000000,
2.0240,-0.6303,0.7791,0.6287,-0.3045,-0.0903,-3.9806,-0.8923,-1.5785,-0.4127,49.27908386,-122.98361161,0.00000000,
2.0410,-0.6303,0.7791,0.6287,-0.3045,-0.0903,-3.9806,1.1436,-4.5358,0.1858,49.27908386,-122.98361161,0.00000000,
2.0600,-0.6303,0.7791,0.6287,-3.7391,0.1872,0.5834,1.1436,-4.5358,0.1858,49.27908386,-122.98361161,0.00000000,
2.0820,-0.3718,0.7219,0.2416,-3.7391,0.1872,0.5834,1.1436,-4.5358,0.1858,49.27908386,-122.98361161,0.00000000,
2.0990,-0.3718,0.7219,0.2416,-3.7391,0.1872,0.5834,-0.0972,-1.2113,-0.2771,49.27908386,-122.98361161,0.00000000,
2.1180,-0.3718,0.7219,0.2416,2.0001,0.3245,-1.8662,-0.0972,-1.2113,-0.2771,49.27908386,-122.98361161,0.00000000,
2.1580,-0.5720,0.8308,0.5479,2.0001,0.3245,-1.8662,-0.0972,-1.2113,-0.2771,49.27908386,-122.98361161,0.00000000,
2.1760,-0.5720,0.8308,0.5479,2.0001,0.3245,-1.8662,0.1802,-1.7761,0.2052,49.27908386,-122.98361161,0.00000000,
2.1940,-0.5720,0.8308,0.5479,-1.9722,0.6119,-0.2062,0.1802,-1.7761,0.2052,49.27908386,-122.98361161,0.00000000,
2.2140,-0.3598,0.7946,0.3823,-1.9722,0.6119,-0.2062,0.1802,-1.7761,0.2052,49.27908386,-122.98361161,0.00000000,
2.2320,-0.3598,0.7946,0.3823,-1.9722,0.6119,-0.2062,0.0847,0.2349,0.0760,49.27908386,-122.98361161,0.00000000,
2.2520,-0.3598,0.7946,0.3823,1.1349,0.6520,-0.8503,0.0847,0.2349,0.0760,49.27908386,-122.98361161,0.00000000,
2.2890,-0.5281,0.7931,0.5628,1.1349,0.6520,-0.8503,0.0847,0.2349,0.0760,49.27908386,-122.98361161,0.00000000,
2.3090,-0.5281,0.7931,0.5628,1.1349,0.6520,-0.8503,0.0645,0.6012,0.3734,49.27908386,-122.98361161,0.00000000,
2.3270,-0.5281,0.7931,0.5628,-0.1234,0.2881,-0.1563,0.0645,0.6012,0.3734,49.27908386,-122.98361161,0.00000000,
2.3480,-0.3320,0.8293,0.3729,-0.1234,0.2881,-0.1563,0.0645,0.6012,0.3734,49.27908386,-122.98361161,0.00000000,
2.3650,-0.3320,0.8293,0.3729,-0.1234,0.2881,-0.1563,0.3598,-0.0873,0.1743,49.27908386,-122.98361161,0.00000000,
2.3840,-0.3320,0.8293,0.3729,-0.2573,0.8867,1.0475,0.3598,-0.0873,0.1743,49.27908386,-122.98361161,0.00000000,
2.4220,-0.4734,0.7929,0.3763,-0.2573,0.8867,1.0475,0.3598,-0.0873,0.1743,49.27908386,-122.98361161,0.00000000,
2.4410,-0.4734,0.7929,0.3763,-0.2573,0.8867,1.0475,-0.2141,-0.0220,-0.0668,49.27908386,-122.98361161,0.00000000,
2.4600,-0.4734,0.7929,0.3763,1.1129,0.1222,-2.0993,-0.2141,-0.0220,-0.0668,49.27908386,-122.98361161,0.00000000,
2.4800,-0.3769,0.8161,0.4270,1.1129,0.1222,-2.0993,-0.2141,-0.0220,-0.0668,49.27908386,-122.98361161,0.00000000,
2.5080,-0.3769,0.8161,0.4270,1.1129,0.1222,-2.0993,-0.4038,0.4290,-0.2638,49.27908386,-122.98361161,0.00000000,
2.5260,-0.3769,0.8161,0.4270,0.3610,0.8754,-0.2333,-0.4038,0.4290,-0.2638,49.27908386,-122.98361161,0.00000000,
2.5460,-0.5301,0.7886,0.4769,0.3610,0.8754,-0.2333,-0.4038,0.4290,-0.2638,49.27908386,-122.98361161,0.00000000,
2.5650,-0.5301,0.7886,0.4769,0.3610,0.8754,-0.2333,-0.3200,0.5897,-0.2094,49.27908386,-122.98361161,0.00000000,
2.5840,-0.5301,0.7886,0.4769,0.4534,0.9257,-0.6353,-0.3200,0.5897,-0.2094,49.27908386,-122.98361161,0.00000000,
2.6230,-0.5185,0.6548,0.4099,0.4534,0.9257,-0.6353,-0.3200,0.5897,-0.2094,49.27908386,-122.98361161,0.00000000,
2.6410,-0.5185,0.6548,0.4099,0.4534,0.9257,-0.6353,-0.1905,0.3185,-0.0620,49.27908386,-122.98361161,0.00000000,
2.6610,-0.5185,0.6548,0.4099,-0.2099,-0.3108,0.4091,-0.1905,0.3185,-0.0620,49.27908386,-122.98361161,0.00000000,
2.6790,-0.5268,0.7624,0.4524,-0.2099,-0.3108,0.4091,-0.1905,0.3185,-0.0620,49.27908386,-122.98361161,0.00000000,
2.6990,-0.5268,0.7624,0.4524,-0.2099,-0.3108,0.4091,-0.2141,0.3852,-0.0928,49.27908386,-122.98361161,0.00000000,
2.7170,-0.5268,0.7624,0.4524,0.3288,0.1647,-0.7037,-0.2141,0.3852,-0.0928,49.27908386,-122.98361161,0.00000000,
2.7550,-0.5417,0.7475,0.4530,0.3288,0.1647,-0.7037,-0.2141,0.3852,-0.0928,49.27908386,-122.98361161,0.00000000,
2.7750,-0.5417,0.7475,0.4530,0.3288,0.1647,-0.7037,0.0039,0.0117,-0.0689,49.27908386,-122.98361161,0.00000000,
2.7940,-0.5417,0.7475,0.4530,-0.1462,0.5082,-0.0885,0.0039,0.0117,-0.0689,49.27908386,-122.98361161,0.00000000,
2.8120,-0.5217,0.7508,0.4212,-0.1462,0.5082,-0.0885,0.0039,0.0117,-0.0689,49.27908386,-122.98361161,0.00000000,
2.8310,-0.5217,0.7508,0.4212,-0.1462,0.5082,-0.0885,0.0594,-0.3472,-0.2080,49.27908386,-122.98361161,0.00000000,
2.8500,-0.5217,0.7508,0.4212,0.2095,0.4327,-0.1300,0.0594,-0.3472,-0.2080,49.27908386,-122.98361161,0.00000000,
2.8890,-0.5594,0.7295,0.4087,0.2095,0.4327,-0.1300,0.0594,-0.3472,-0.2080,49.27908386,-122.98361161,0.00000000,
2.9070,-0.5594,0.7295,0.4087,0.2095,0.4327,-0.1300,-0.1045,0.1660,-0.0512,49.27908386,-122.98361161,0.00000000,
2.9270,-0.5594,0.7295,0.4087,0.1042,0.5222,-0.3464,-0.1045,0.1660,-0.0512,49.27908386,-122.98361161,0.00000000,
2.9470,-0.5259,0.7256,0.4856,0.1042,0.5222,-0.3464,-0.1045,0.1660,-0.0512,49.27908386,-122.98361161,0.00000000,
2.9650,-0.5259,0.7256,0.4856,0.1042,0.5222,-0.3464,0.0899,-0.0138,-0.0095,49.27908386,-122.98361161,0.00000000,
2.9840,-0.5259,0.7256,0.4856,-0.1224,0.1817,-0.2217,0.0899,-0.0138,-0.0095,49.27908386,-122.98361161,0.00000000,
3.0230,-0.5611,0.7288,0.4155,-0.1224,0.1817,-0.2217,0.0899,-0.0138,-0.0095,49.27908386,-122.98361161,0.00000000,
3.0400,-0.5611,0.7288,0.4155,-0.1224,0.1817,-0.2217,-0.0043,0.0396,0.0355,49.27908386,-122.98361161,0.00000000,
3.0620,-0.5611,0.7288,0.4155,-0.1827,0.2929,-0.2717,-0.0043,0.0396,0.0355,49.27908386,-122.98361161,0.00000000,
3.0790,-0.5342,0.7307,0.4484,-0.1827,0.2929,-0.2717,-0.0043,0.0396,0.0355,49.27908386,-122.98361161,0.00000000,
3.0980,-0.5342,0.7307,0.4484,-0.1827,0.2929,-0.2717,-0.0844,0.1588,0.0135,49.27908386,-122.98361161,0.00000000,
3.1170,-0.5342,0.7307,0.4484,0.1034,0.2383,-0.3694,-0.0844,0.1588,0.0135,49.27908386,-122.98361161,0.00000000,
3.1560,-0.5108,0.6734,0.5222,0.1034,0.2383,-0.3694,-0.0844,0.1588,0.0135,49.27908386,-122.98361161,0.00000000,
3.1750,-0.5108,0.6734,0.5222,0.1034,0.2383,-0.3694,0.2580,0.0614,0.0390,49.27908386,-122.98361161,0.00000000,
3.1960,-0.5108,0.6734,0.5222,0.2724,-0.0543,0.5282,0.2580,0.0614,0.0390,49.27908386,-122.98361161,0.00000000,
3.2120,-0.6959,0.7071,0.4617,0.2724,-0.0543,0.5282,0.2580,0.0614,0.0390,49.27908386,-122.98361161,0.00000000,
3.2310,-0.6959,0.7071,0.4617,0.2724,-0.0543,0.5282,0.5861,0.4860,0.8340,49.27908386,-122.98361161,0.00000000,
3.2520,-0.6959,0.7071,0.4617,-1.3008,-1.2397,0.9091,0.5861,0.4860,0.8340,49.27908386,-122.98361161,0.00000000,
3.2880,-0.4011,0.8607,0.3106,-1.3008,-1.2397,0.9091,0.5861,0.4860,0.8340,49.27908386,-122.98361161,0.00000000,
3.3080,-0.4011,0.8607,0.3106,-1.3008,-1.2397,0.9091,0.4324,0.3068,0.6551,49.27908386,-122.98361161,0.00000000,
3.3260,-0.4011,0.8607,0.3106,-0.1728,0.4794,-0.1332,0.4324,0.3068,0.6551,49.27908386,-122.98361161,0.00000000,
3.3450,-0.5044,0.8960,0.4907,-0.1728,0.4794,-0.1332,0.4324,0.3068,0.6551,49.27908386,-122.98361161,0.00000000,
3.3640,-0.5044,0.8960,0.4907,-0.1728,0.4794,-0.1332,0.8657,0.3922,0.5603,49.27908386,-122.98361161,0.00000000,
3.3830,-0.5044,0.8960,0.4907,0.0106,-0.0078,0.8208,0.8657,0.3922,0.5603,49.27908386,-122.98361161,0.00000000,
3.4230,-0.4359,0.8969,0.0542,0.0106,-0.0078,0.8208,0.8657,0.3922,0.5603,49.27908386,-122.98361161,0.00000000,
3.4420,-0.4359,0.8969,0.0542,0.0106,-0.0078,0.8208,0.8996,0.3922,0.4863,49.27908386,-122.98361161,0.00000000,
3.4610,-0.4359,0.8969,0.0542,-0.7844,0.6696,1.0119,0.8996,0.3922,0.4863,49.27908386,-122.98361161,0.00000000,
3.4790,-0.3031,0.6720,0.1823,-0.7844,0.6696,1.0119,0.8996,0.3922,0.4863,49.27908386,-122.98361161,0.00000000,
3.4980,-0.3031,0.6720,0.1823,-0.7844,0.6696,1.0119,0.5973,-1.9955,-0.1118,49.27908386,-122.98361161,0.00000000,
3.5180,-0.3031,0.6720,0.1823,1.0894,-0.9290,-1.8743,0.5973,-1.9955,-0.1118,49.27908386,-122.98361161,0.00000000,
3.5560,-0.4425,0.9493,0.1547,1.0894,-0.9290,-1.8743,0.5973,-1.9955,-0.1118,49.27908386,-122.98361161,0.00000000,
3.5750,-0.4425,0.9493,0.1547,1.0894,-0.9290,-1.8743,-0.3040,-0.1691,-0.3607,49.27908386,-122.98361161,0.00000000,
3.5940,-0.4425,0.9493,0.1547,1.5545,0.1242,-1.3530,-0.3040,-0.1691,-0.3607,49.27908386,-122.98361161,0.00000000,
3.6120,-0.5269,0.9524,0.4624,1.5545,0.1242,-1.3530,-0.3040,-0.1691,-0.3607,49.27908386,-122.98361161,0.00000000,
3.6310,-0.5269,0.9524,0.4624,1.5545,0.1242,-1.3530,-0.2050,-0.0941,0.0423,49.27908386,-122.98361161,0.00000000,
3.6500,-0.5269,0.9524,0.4624,-1.1573,0.2146,-0.3292,-0.2050,-0.0941,0.0423,49.27908386,-122.98361161,0.00000000,
3.6900,-0.4334,0.8385,0.0997,-1.1573,0.2146,-0.3292,-0.2050,-0.0941,0.0423,49.27908386,-122.98361161,0.00000000,
3.7070,-0.4334,0.8385,0.0997,-1.1573,0.2146,-0.3292,-0.4544,-0.6502,0.0816,49.27908386,-122.98361161,0.00000000,
3.7260,-0.4334,0.8385,0.0997,-0.1560,1.0683,-1.2150,-0.4544,-0.6502,0.0816,49.27908386,-122.98361161,0.00000000,
3.7450,-0.1847,0.6729,0.4277,-0.1560,1.0683,-1.2150,-0.4544,-0.6502,0.0816,49.27908386,-122.98361161,0.00000000,
3.7650,-0.1847,0.6729,0.4277,-0.1560,1.0683,-1.2150,-0.6300,2.6571,-0.5635,49.27908386,-122.98361161,0.00000000,
3.7860,-0.1847,0.6729,0.4277,2.5842,-0.6218,1.1495,-0.6300,2.6571,-0.5635,49.27908386,-122.98361161,0.00000000,
3.8210,-0.6341,0.9751,0.2936,2.5842,-0.6218,1.1495,-0.6300,2.6571,-0.5635,49.27908386,-122.98361161,0.00000000,
3.8410,-0.6341,0.9751,0.2936,2.5842,-0.6218,1.1495,0.0725,0.3915,-0.8021,49.27908386,-122.98361161,0.00000000,
3.8600,-0.6341,0.9751,0.2936,0.3622,1.1265,0.5718,0.0725,0.3915,-0.8021,49.27908386,-122.98361161,0.00000000,
3.8790,-0.4958,0.7741,0.2196,0.3622,1.1265,0.5718,0.0725,0.3915,-0.8021,49.27908386,-122.98361161,0.00000000,
3.8970,-0.4958,0.7741,0.2196,0.3622,1.1265,0.5718,-0.1637,0.9056,-0.6389,49.27908386,-122.98361161,0.00000000,
3.9180,-0.4958,0.7741,0.2196,-0.6696,0.4299,-0.3489,-0.1637,0.9056,-0.6389,49.27908386,-122.98361161,0.00000000,
3.9550,-0.7280,0.7330,0.2368,-0.6696,0.4299,-0.3489,-0.1637,0.9056,-0.6389,49.27908386,-122.98361161,0.00000000,
3.9750,-0.7280,0.7330,0.2368,-0.6696,0.4299,-0.3489,-0.3607,0.4525,-0.5462,49.27908386,-122.98361161,0.00000000,
3.9930,-0.7280,0.7330,0.2368,1.4109,0.3210,-1.3633,-0.3607,0.4525,-0.5462,49.27908386,-122.98361161,0.00000000,
4.0120,-0.7641,0.6823,0.2814,1.4109,0.3210,-1.3633,-0.3607,0.4525,-0.5462,49.27908386,-122.98361161,0.00000000,
4.0310,-0.7641,0.6823,0.2814,1.4109,0.3210,-1.3633,0.2440,-1.1123,-0.0067,49.27908386,-122.98361161,0.00000000,
4.0510,-0.7641,0.6823,0.2814,-1.6080,-0.2101,0.2875,0.2440,-1.1123,-0.0067,49.27908386,-122.98361161,0.00000000,
4.0890,-0.5787,0.7924,0.3993,-1.6080,-0.2101,0.2875,0.2440,-1.1123,-0.0067,49.27908386,-122.98361161,0.00000000,
4.1070,-0.5787,0.7924,0.3993,-1.6080,-0.2101,0.2875,0.9862,-1.5799,-0.0045,49.27908386,-122.98361161,0.00000000,
4.1270,-0.5787,0.7924,0.3993,-0.5962,-0.6386,0.4350,0.9862,-1.5799,-0.0045,49.27908386,-122.98361161,0.00000000,
4.1450,-0.5890,0.8320,0.3744,-0.5962,-0.6386,0.4350,0.9862,-1.5799,-0.0045,49.27908386,-122.98361161,0.00000000,
4.1650,-0.5890,0.8320,0.3744,-0.5962,-0.6386,0.4350,1.5590,-0.1381,0.0334,49.27908386,-122.98361161,0.00000000,
4.1840,-0.5890,0.8320,0.3744,-0.3359,0.6389,2.7558,1.5590,-0.1381,0.0334,49.27908386,-122.98361161,0.00000000,
4.2220,-0.7345,0.8255,-0.0272,-0.3359,0.6389,2.7558,1.5590,-0.1381,0.0334,49.27908386,-122.98361161,0.00000000,
4.2400,-0.7345,0.8255,-0.0272,-0.3359,0.6389,2.7558,1.0263,0.0230,0.5813,49.27908386,-122.98361161,0.00000000,
4.2600,-0.7345,0.8255,-0.0272,-1.2454,0.2165,-0.8555,1.0263,0.0230,0.5813,49.27908386,-122.98361161,0.00000000,
4.2790,-0.4659,1.0773,0.1038,-1.2454,0.2165,-0.8555,1.0263,0.0230,0.5813,49.27908386,-122.98361161,0.00000000,
4.2980,-0.4659,1.0773,0.1038,-1.2454,0.2165,-0.8555,0.6292,0.5639,0.5479,49.27908386,-122.98361161,0.00000000,
4.3170,-0.4659,1.0773,0.1038,-1.2044,0.4930,-1.5116,0.6292,0.5639,0.5479,49.27908386,-122.98361161,0.00000000,
4.3540,-0.6067,0.8348,0.1528,-1.2044,0.4930,-1.5116,0.6292,0.5639,0.5479,49.27908386,-122.98361161,0.00000000,
4.3740,-0.6067,0.8348,0.1528,-1.2044,0.4930,-1.5116,1.0863,-0.0962,0.8317,49.27908386,-122.98361161,0.00000000,
4.3920,-0.6067,0.8348,0.1528,-0.5430,0.6038,1.4268,1.0863,-0.0962,0.8317,49.27908386,-122.98361161,0.00000000,
4.4110,-0.3016,0.6196,-0.1223,-0.5430,0.6038,1.4268,1.0863,-0.0962,0.8317,49.27908386,-122.98361161,0.00000000,
4.4300,-0.3016,0.6196,-0.1223,-0.5430,0.6038,1.4268,0.2975,0.4649,0.4141,49.27908386,-122.98361161,0.00000000,
4.4490,-0.3016,0.6196,-0.1223,1.1539,-1.4253,-0.1928,0.2975,0.4649,0.4141,49.27908386,-122.98361161,0.00000000,
4.4870,-0.3280,0.8577,0.0659,1.1539,-1.4253,-0.1928,0.2975,0.4649,0.4141,49.27908386,-122.98361161,0.00000000,
4.4970,-0.3280,0.8577,0.0659,1.1539,-1.4253,-0.1928,-0.0013,0.2846,0.1031,49.27908386,-122.98361161,0.00000000,
4.5160,-0.3280,0.8577,0.0659,0.2162,-1.4122,-0.8683,-0.0013,0.2846,0.1031,49.27908386,-122.98361161,0.00000000,
4.5540,-0.5167,0.7065,0.0555,0.2162,-1.4122,-0.8683,-0.0013,0.2846,0.1031,49.27908386,-122.98361161,0.00000000,
4.5730,-0.5167,0.7065,0.0555,0.2162,-1.4122,-0.8683,0.4640,0.3457,0.0416,49.27908386,-122.98361161,0.00000000,
4.5920,-0.5167,0.7065,0.0555,0.5658,-1.6807,0.9269,0.4640,0.3457,0.0416,49.27908386,-122.98361161,0.00000000,
4.6100,-0.4548,0.9587,-0.1245,0.5658,-1.6807,0.9269,0.4640,0.3457,0.0416,49.27908386,-122.98361161,0.00000000,
4.6300,-0.4548,0.9587,-0.1245,0.5658,-1.6807,0.9269,0.4456,-0.1421,0.0324,49.27908386,-122.98361161,0.00000000,
4.6500,-0.4548,0.9587,-0.1245,-0.0323,0.7077,0.6439,0.4456,-0.1421,0.0324,49.27908386,-122.98361161,0.00000000,
4.6880,-0.1890,0.7317,-0.1654,-0.0323,0.7077,0.6439,0.4456,-0.1421,0.0324,49.27908386,-122.98361161,0.00000000,
4.7080,-0.1890,0.7317,-0.1654,-0.0323,0.7077,0.6439,-0.2843,0.3810,-0.4926,49.27908386,-122.98361161,0.00000000,
4.7260,-0.1890,0.7317,-0.1654,1.5662,-1.1879,-1.7392,-0.2843,0.3810,-0.4926,49.27908386,-122.98361161,0.00000000,
4.7440,-0.6640,0.8902,-0.0604,1.5662,-1.1879,-1.7392,-0.2843,0.3810,-0.4926,49.27908386,-122.98361161,0.00000000,
4.7640,-0.6640,0.8902,-0.0604,1.5662,-1.1879,-1.7392,-0.2206,-1.3038,0.1673,49.27908386,-122.98361161,0.00000000,
4.7850,-0.6640,0.8902,-0.0604,-0.7893,-1.8206,-2.7866,-0.2206,-1.3038,0.1673,49.27908386,-122.98361161,0.00000000,
4.8210,-0.3581,0.9859,0.1299,-0.7893,-1.8206,-2.7866,-0.2206,-1.3038,0.1673,49.27908386,-122.98361161,0.00000000,
4.8400,-0.3581,0.9859,0.1299,-0.7893,-1.8206,-2.7866,0.8212,-0.5128,-0.5404,49.27908386,-122.98361161,0.00000000,
4.8590,-0.3581,0.9859,0.1299,2.0141,2.8376,2.7984,0.8212,-0.5128,-0.5404,49.27908386,-122.98361161,0.00000000,
4.8790,-0.5738,0.8961,-0.1724,2.0141,2.8376,2.7984,0.8212,-0.5128,-0.5404,49.27908386,-122.98361161,0.00000000,
4.8970,-0.5738,0.8961,-0.1724,2.0141,2.8376,2.7984,-0.2370,-0.6657,-0.2896,49.27908386,-122.98361161,0.00000000,
4.9170,-0.5738,0.8961,-0.1724,-0.6027,-1.3732,-2.0012,-0.2370,-0.6657,-0.2896,49.27908386,-122.98361161,0.00000000,
4.9550,-0.6802,1.1763,-0.0020,-0.6027,-1.3732,-2.0012,-0.2370,-0.6657,-0.2896,49.27908386,-122.98361161,0.00000000,
4.9740,-0.6802,1.1763,-0.0020,-0.6027,-1.3732,-2.0012,-0.9351,-0.5938,0.6589,49.27908386,-122.98361161,0.00000000,
4.9920,-0.6802,1.1763,-0.0020,-2.5296,3.2936,-1.9168,-0.9351,-0.5938,0.6589,49.27908386,-122.98361161,0.00000000,
5.0110,-0.6174,0.9295,0.1363,-2.5296,3.2936,-1.9168,-0.9351,-0.5938,0.6589,49.27908386,-122.98361161,0.00000000,
5.0300,-0.6174,0.9295,0.1363,-2.5296,3.2936,-1.9168,-0.3258,0.0049,1.4505,49.27908386,-122.98361161,0.00000000,
5.0500,-0.6174,0.9295,0.1363,-1.9600,0.7550,0.3447,-0.3258,0.0049,1.4505,49.27908386,-122.98361161,0.00000000,
5.0880,0.2396,0.9123,0.0839,-1.9600,0.7550,0.3447,-0.3258,0.0049,1.4505,49.27908386,-122.98361161,0.00000000,
5.1080,0.2396,0.9123,0.0839,-1.9600,0.7550,0.3447,-1.1105,0.7454,-0.2217,49.27908386,-122.98361161,0.00000000,
5.1270,0.2396,0.9123,0.0839,2.7355,-0.3082,-2.6467,-1.1105,0.7454,-0.2217,49.27908386,-122.98361161,0.00000000,
5.1450,-0.5773,0.7651,0.2234,2.7355,-0.3082,-2.6467,-1.1105,0.7454,-0.2217,49.27908386,-122.98361161,0.00000000,
5.1640,-0.5773,0.7651,0.2234,2.7355,-0.3082,-2.6467,0.1477,0.2754,-0.6811,49.27908386,-122.98361161,0.00000000,
5.1830,-0.5773,0.7651,0.2234,1.7259,0.5467,3.4007,0.1477,0.2754,-0.6811,49.27908386,-122.98361161,0.00000000,
5.2210,-0.7729,0.8173,0.0686,1.7259,0.5467,3.4007,0.1477,0.2754,-0.6811,49.27908386,-122.98361161,0.00000000,
5.2400,-0.7729,0.8173,0.0686,1.7259,0.5467,3.4007,0.1336,-0.0180,0.5567,49.27908386,-122.98361161,0.00000000,
5.2580,-0.7729,0.8173,0.0686,-2.7096,-1.6600,-0.8314,0.1336,-0.0180,0.5567,49.27908386,-122.98361161,0.00000000,
5.2770,-0.1742,0.9325,0.2166,-2.7096,-1.6600,-0.8314,0.1336,-0.0180,0.5567,49.27908386,-122.98361161,0.00000000,
5.2980,-0.1742,0.9325,0.2166,-2.7096,-1.6600,-0.8314,-0.0485,-0.2569,0.2392,49.27908386,-122.98361161,0.00000000,
5.3170,-0.1742,0.9325,0.2166,-0.4264,-0.4645,-1.8389,-0.0485,-0.2569,0.2392,49.27908386,-122.98361161,0.00000000,
5.3540,-0.5479,0.8649,-0.0804,-0.4264,-0.4645,-1.8389,-0.0485,-0.2569,0.2392,49.27908386,-122.98361161,0.00000000,
5.3730,-0.5479,0.8649,-0.0804,-0.4264,-0.4645,-1.8389,-0.1474,-0.3985,0.3900,49.27908386,-122.98361161,0.00000000,
5.3920,-0.5479,0.8649,-0.0804,0.4063,0.0522,0.0381,-0.1474,-0.3985,0.3900,49.27908386,-122.98361161,0.00000000,
5.4110,-0.4601,0.9412,0.1190,0.4063,0.0522,0.0381,-0.1474,-0.3985,0.3900,49.27908386,-122.98361161,0.00000000,
5.4300,-0.4601,0.9412,0.1190,0.4063,0.0522,0.0381,-0.3759,-0.1760,1.5773,49.27908386,-122.98361161,0.00000000,
5.4490,-0.4601,0.9412,0.1190,-3.0725,-0.3750,-1.1190,-0.3759,-0.1760,1.5773,49.27908386,-122.98361161,0.00000000,
5.4870,0.0108,0.9146,0.3176,-3.0725,-0.3750,-1.1190,-0.3759,-0.1760,1.5773,49.27908386,-122.98361161,0.00000000,
5.4980,0.0108,0.9146,0.3176,-3.0725,-0.3750,-1.1190,-0.1104,0.0810,0.9415,49.27908386,-122.98361161,0.00000000,
5.5170,0.0108,0.9146,0.3176,0.7507,-0.3257,-0.5799,-0.1104,0.0810,0.9415,49.27908386,-122.98361161,0.00000000,
5.5540,-0.1385,0.9752,0.2083,0.7507,-0.3257,-0.5799,-0.1104,0.0810,0.9415,49.27908386,-122.98361161,0.00000000,
5.5730,-0.1385,0.9752,0.2083,0.7507,-0.3257,-0.5799,0.3160,-0.1241,0.0842,49.27908386,-122.98361161,0.00000000,
5.5910,-0.1385,0.9752,0.2083,1.5052,-0.4106,1.1318,0.3160,-0.1241,0.0842,49.27908386,-122.98361161,0.00000000,
5.6110,-0.2380,0.8865,0.0778,1.5052,-0.4106,1.1318,0.3160,-0.1241,0.0842,49.27908386,-122.98361161,0.00000000,
5.6300,-0.2380,0.8865,0.0778,1.5052,-0.4106,1.1318,-0.1881,-0.1662,0.3059,49.27908386,-122.98361161,0.00000000,
5.6490,-0.2380,0.8865,0.0778,0.0134,-0.6413,-0.0740,-0.1881,-0.1662,0.3059,49.27908386,-122.98361161,0.00000000,
5.6870,-0.0261,0.7617,0.3582,0.0134,-0.6413,-0.0740,-0.1881,-0.1662,0.3059,49.27908386,-122.98361161,0.00000000,
5.7060,-0.0261,0.7617,0.3582,0.0134,-0.6413,-0.0740,-0.2600,0.4290,0.8686,49.27908386,-122.98361161,0.00000000,
5.7260,-0.0261,0.7617,0.3582,-0.9212,-0.5822,-0.6424,-0.2600,0.4290,0.8686,49.27908386,-122.98361161,0.00000000,
5.7440,-0.2656,1.1676,0.1463,-0.9212,-0.5822,-0.6424,-0.2600,0.4290,0.8686,49.27908386,-122.98361161,0.00000000,
5.7620,-0.2656,1.1676,0.1463,-0.9212,-0.5822,-0.6424,0.5814,0.2681,1.6293,49.27908386,-122.98361161,0.00000000,
5.7840,-0.2656,1.1676,0.1463,-0.3738,-2.3040,2.2346,0.5814,0.2681,1.6293,49.27908386,-122.98361161,0.00000000,
5.8190,0.1391,1.2834,0.0463,-0.3738,-2.3040,2.2346,0.5814,0.2681,1.6293,49.27908386,-122.98361161,0.00000000,
5.8390,0.1391,1.2834,0.0463,-0.3738,-2.3040,2.2346,-0.1408,-0.3161,0.7008,49.27908386,-122.98361161,0.00000000,
5.8590,0.1391,1.2834,0.0463,-1.9219,5.0755,-1.8290,-0.1408,-0.3161,0.7008,49.27908386,-122.98361161,0.00000000,
5.8770,0.1584,1.0516,0.2317,-1.9219,5.0755,-1.8290,-0.1408,-0.3161,0.7008,49.27908386,-122.98361161,0.00000000,
5.8960,0.1584,1.0516,0.2317,-1.9219,5.0755,-1.8290,0.1524,-0.2131,-0.5382,49.27908386,-122.98361161,0.00000000,
5.9150,0.1584,1.0516,0.2317,2.9185,0.6064,0.5031,0.1524,-0.2131,-0.5382,49.27908386,-122.98361161,0.00000000,
5.9530,-0.0029,1.0182,0.0957,2.9185,0.6064,0.5031,0.1524,-0.2131,-0.5382,49.27908386,-122.98361161,0.00000000,
5.9710,-0.0029,1.0182,0.0957,2.9185,0.6064,0.5031,-0.1947,0.0295,-0.2779,49.27908386,-122.98361161,0.00000000,
5.9920,-0.0029,1.0182,0.0957,0.7403,0.9176,-0.6141,-0.1947,0.0295,-0.2779,49.27908386,-122.98361161,0.00000000,
6.0100,-0.0521,0.9089,0.2195,0.7403,0.9176,-0.6141,-0.1947,0.0295,-0.2779,49.27908386,-122.98361161,0.00000000,
6.0300,-0.0521,0.9089,0.2195,0.7403,0.9176,-0.6141,0.0372,0.1675,0.0264,49.27908386,-122.98361161,0.00000000,
6.0480,-0.0521,0.9089,0.2195,-0.0588,-0.8286,0.0643,0.0372,0.1675,0.0264,49.27908386,-122.98361161,0.00000000,
6.0880,-0.0643,1.0314,0.1601,-0.0588,-0.8286,0.0643,0.0372,0.1675,0.0264,49.27908386,-122.98361161,0.00000000,
6.1070,-0.0643,1.0314,0.1601,-0.0588,-0.8286,0.0643,0.0648,0.1035,-0.1451,49.27908386,-122.98361161,0.00000000,
6.1250,-0.0643,1.0314,0.1601,-0.0514,0.0424,0.1944,0.0648,0.1035,-0.1451,49.27908386,-122.98361161,0.00000000,
6.1460,-0.0790,1.1003,0.1922,-0.0514,0.0424,0.1944,0.0648,0.1035,-0.1451,49.27908386,-122.98361161,0.00000000,
6.1630,-0.0790,1.1003,0.1922,-0.0514,0.0424,0.1944,-0.0368,-0.1552,-0.0111,49.27908386,-122.98361161,0.00000000,
6.1810,-0.0790,1.1003,0.1922,-0.8481,0.3607,-0.2894,-0.0368,-0.1552,-0.0111,49.27908386,-122.98361161,0.00000000,
6.2190,-0.0376,0.9491,0.1339,-0.8481,0.3607,-0.2894,-0.0368,-0.1552,-0.0111,49.27908386,-122.98361161,0.00000000,
6.2390,-0.0376,0.9491,0.1339,-0.8481,0.3607,-0.2894,-0.0788,-0.2616,-0.0427,49.27908386,-122.98361161,0.00000000,
6.2580,-0.0376,0.9491,0.1339,0.4880,0.8554,0.0059,-0.0788,-0.2616,-0.0427,49.27908386,-122.98361161,0.00000000,
6.2770,-0.0484,0.9152,0.1525,0.4880,0.8554,0.0059,-0.0788,-0.2616,-0.0427,49.27908386,-122.98361161,0.00000000,
6.2960,-0.0484,0.9152,0.1525,0.4880,0.8554,0.0059,-0.0315,0.0454,0.0158,49.27908386,-122.98361161,0.00000000,
6.3150,-0.0484,0.9152,0.1525,0.0540,-0.2889,-0.3884,-0.0315,0.0454,0.0158,49.27908386,-122.98361161,0.00000000,
6.3530,-0.0142,1.0332,0.1970,0.0540,-0.2889,-0.3884,-0.0315,0.0454,0.0158,49.27908386,-122.98361161,0.00000000,
6.3720,-0.0142,1.0332,0.1970,0.0540,-0.2889,-0.3884,0.1425,-0.0627,-0.0671,49.27908386,-122.98361161,0.00000000,
6.3910,-0.0142,1.0332,0.1970,0.2254,-0.7935,0.3278,0.1425,-0.0627,-0.0671,49.27908386,-122.98361161,0.00000000,
6.4090,-0.0424,0.9396,0.1897,0.2254,-0.7935,0.3278,0.1425,-0.0627,-0.0671,49.27908386,-122.98361161,0.00000000,
6.4280,-0.0424,0.9396,0.1897,0.2254,-0.7935,0.3278,0.0639,-0.0744,-0.0484,49.27908386,-122.98361161,0.00000000,
6.4480,-0.0424,0.9396,0.1897,-0.0395,0.4247,-0.0875,0.0639,-0.0744,-0.0484,49.27908386,-122.98361161,0.00000000,
6.4860,-0.0837,1.0339,0.2354,-0.0395,0.4247,-0.0875,0.0639,-0.0744,-0.0484,49.27908386,-122.98361161,0.00000000,
6.4970,-0.0837,1.0339,0.2354,-0.0395,0.4247,-0.0875,0.1632,-0.1489,0.0153,49.27908386,-122.98361161,0.00000000,
6.5140,-0.0837,1.0339,0.2354,0.1472,-0.0229,0.8369,0.1632,-0.1489,0.0153,49.27908386,-122.98361161,0.00000000,
6.5520,-0.0793,1.0628,0.2372,0.1472,-0.0229,0.8369,0.1632,-0.1489,0.0153,49.27908386,-122.98361161,0.00000000,
6.5710,-0.0793,1.0628,0.2372,0.1472,-0.0229,0.8369,0.1330,-0.4364,0.0453,49.27908386,-122.98361161,0.00000000,
6.5910,-0.0793,1.0628,0.2372,-0.6471,0.4513,1.0888,0.1330,-0.4364,0.0453,49.27908386,-122.98361161,0.00000000,
6.6100,0.0438,0.9733,0.2788,-0.6471,0.4513,1.0888,0.1330,-0.4364,0.0453,49.27908386,-122.98361161,0.00000000,
6.6290,0.0438,0.9733,0.2788,-0.6471,0.4513,1.0888,0.3043,-0.6404,-0.2041,49.27908386,-122.98361161,0.00000000,
6.6470,0.0438,0.9733,0.2788,0.1226,-0.0371,1.2557,0.3043,-0.6404,-0.2041,49.27908386,-122.98361161,0.00000000,
6.6860,-0.1415,1.0217,0.0858,0.1226,-0.0371,1.2557,0.3043,-0.6404,-0.2041,49.27908386,-122.98361161,0.00000000,
6.7060,-0.1415,1.0217,0.0858,0.1226,-0.0371,1.2557,-0.3445,-0.2220,0.1607,49.27908386,-122.98361161,0.00000000,
6.7240,-0.1415,1.0217,0.0858,-0.4153,0.5582,-0.9360,-0.3445,-0.2220,0.1607,49.27908386,-122.98361161,0.00000000,
6.7430,-0.0356,1.0150,0.2316,-0.4153,0.5582,-0.9360,-0.3445,-0.2220,0.1607,49.27908386,-122.98361161,0.00000000,
6.7630,-0.0356,1.0150,0.2316,-0.4153,0.5582,-0.9360,-0.0909,-0.4072,0.0376,49.27908386,-122.98361161,0.00000000,
6.7810,-0.0356,1.0150,0.2316,0.0542,-0.3394,0.8864,-0.0909,-0.4072,0.0376,49.27908386,-122.98361161,0.00000000,
6.8190,-0.0679,1.0598,0.1468,0.0542,-0.3394,0.8864,-0.0909,-0.4072,0.0376,49.27908386,-122.98361161,0.00000000,
6.8380,-0.0679,1.0598,0.1468,0.0542,-0.3394,0.8864,-0.4550,-0.7041,-0.0699,49.27908386,-122.98361161,0.00000000,
6.8570,-0.0679,1.0598,0.1468,-0.2544,0.9310,-0.5890,-0.4550,-0.7041,-0.0699,49.27908386,-122.98361161,0.00000000,
6.8760,-0.0486,1.0398,0.2518,-0.2544,0.9310,-0.5890,-0.4550,-0.7041,-0.0699,49.27908386,-122.98361161,0.00000000,
6.8950,-0.0486,1.0398,0.2518,-0.2544,0.9310,-0.5890,-0.7955,-0.6100,-0.0306,49.27908386,-122.98361161,0.00000000,
6.9140,-0.0486,1.0398,0.2518,-0.3265,0.7280,-0.5581,-0.7955,-0.6100,-0.0306,49.27908386,-122.98361161,0.00000000,
6.9520,-0.0312,1.0250,0.2478,-0.3265,0.7280,-0.5581,-0.7955,-0.6100,-0.0306,49.27908386,-122.98361161,0.00000000,
6.9710,-0.0312,1.0250,0.2478,-0.3265,0.7280,-0.5581,-1.0012,-0.6416,-0.0867,49.27908386,-122.98361161,0.00000000,
6.9920,-0.0312,1.0250,0.2478,-0.2388,0.8522,-0.6968,-1.0012,-0.6416,-0.0867,49.27908386,-122.98361161,0.00000000,
7.0090,0.0510,0.9520,0.2144,-0.2388,0.8522,-0.6968,-1.0012,-0.6416,-0.0867,49.27908386,-122.98361161,0.00000000,
7.0280,0.0510,0.9520,0.2144,-0.2388,0.8522,-0.6968,-1.1102,-0.9685,-0.1141,49.27908386,-122.98361161,0.00000000,
7.0470,0.0510,0.9520,0.2144,-0.1348,0.4203,-2.1320,-1.1102,-0.9685,-0.1141,49.27908386,-122.98361161,0.00000000,
7.0860,0.1174,0.9248,0.4488,-0.1348,0.4203,-2.1320,-1.1102,-0.9685,-0.1141,49.27908386,-122.98361161,0.00000000,
7.1050,0.1174,0.9248,0.4488,-0.1348,0.4203,-2.1320,-0.8098,-0.7023,-0.1556,49.27908386,-122.98361161,0.00000000,
7.1250,0.1174,0.9248,0.4488,0.8251,0.5492,-0.4832,-0.8098,-0.7023,-0.1556,49.27908386,-122.98361161,0.00000000,
7.1430,0.1246,0.9075,0.4072,0.8251,0.5492,-0.4832,-0.8098,-0.7023,-0.1556,49.27908386,-122.98361161,0.00000000,
7.1620,0.1246,0.9075,0.4072,0.8251,0.5492,-0.4832,-0.6531,-0.1924,-0.0926,49.27908386,-122.98361161,0.00000000,
7.1810,0.1246,0.9075,0.4072,1.1908,-0.1557,-0.4611,-0.6531,-0.1924,-0.0926,49.27908386,-122.98361161,0.00000000,
7.2180,0.0548,0.7520,0.5623,1.1908,-0.1557,-0.4611,-0.6531,-0.1924,-0.0926,49.27908386,-122.98361161,0.00000000,
7.2380,0.0548,0.7520,0.5623,1.1908,-0.1557,-0.4611,-0.5387,0.4236,0.0444,49.27908386,-122.98361161,0.00000000,
7.2570,0.0548,0.7520,0.5623,0.8366,-0.1557,-0.1317,-0.5387,0.4236,0.0444,49.27908386,-122.98361161,0.00000000,
7.2770,0.0145,0.7864,0.5543,0.8366,-0.1557,-0.1317,-0.5387,0.4236,0.0444,49.27908386,-122.98361161,0.00000000,
7.2960,0.0145,0.7864,0.5543,0.8366,-0.1557,-0.1317,-0.4750,0.2337,-0.1347,49.27908386,-122.98361161,0.00000000,
7.3160,0.0145,0.7864,0.5543,0.5218,-0.8881,0.2872,-0.4750,0.2337,-0.1347,49.27908386,-122.98361161,0.00000000,
7.3530,0.0130,0.7449,0.6640,0.5218,-0.8881,0.2872,-0.4750,0.2337,-0.1347,49.27908386,-122.98361161,0.00000000,
7.3710,0.0130,0.7449,0.6640,0.5218,-0.8881,0.2872,-0.1474,0.0591,-0.1710,49.27908386,-122.98361161,0.00000000,
7.3910,0.0130,0.7449,0.6640,0.1415,-1.2169,0.7539,-0.1474,0.0591,-0.1710,49.27908386,-122.98361161,0.00000000,
7.4090,0.1216,0.5627,0.7329,0.1415,-1.2169,0.7539,-0.1474,0.0591,-0.1710,49.27908386,-122.98361161,0.00000000,
7.4280,0.1216,0.5627,0.7329,0.1415,-1.2169,0.7539,0.7083,0.6416,-0.1453,49.27908386,-122.98361161,0.00000000,
7.4490,0.1216,0.5627,0.7329,1.6788,-1.3976,2.4569,0.7083,0.6416,-0.1453,49.27908386,-122.98361161,0.00000000,
7.4860,-0.1689,1.0631,0.7478,1.6788,-1.3976,2.4569,0.7083,0.6416,-0.1453,49.27908386,-122.98361161,0.00000000,
7.4970,-0.1689,1.0631,0.7478,1.6788,-1.3976,2.4569,1.0045,0.6100,-0.6089,49.27908386,-122.98361161,0.00000000,
7.5150,-0.1689,1.0631,0.7478,1.6952,-3.8888,2.6292,1.0045,0.6100,-0.6089,49.27908386,-122.98361161,0.00000000,
7.5530,0.1242,0.8080,0.2242,1.6952,-3.8888,2.6292,1.0045,0.6100,-0.6089,49.27908386,-122.98361161,0.00000000,
7.5720,0.1242,0.8080,0.2242,1.6952,-3.8888,2.6292,1.2373,0.9699,-0.2942,49.27908386,-122.98361161,0.00000000,
7.5900,0.1242,0.8080,0.2242,0.7380,2.8047,1.3522,1.2373,0.9699,-0.2942,49.27908386,-122.98361161,0.00000000,
7.6090,-0.3957,1.1318,0.0797,0.7380,2.8047,1.3522,1.2373,0.9699,-0.2942,49.27908386,-122.98361161,0.00000000,
7.6290,-0.3957,1.1318,0.0797,0.7380,2.8047,1.3522,1.5763,0.3757,-0.1711,49.27908386,-122.98361161,0.00000000,
7.6480,-0.3957,1.1318,0.0797,-0.9887,0.6133,-0.3143,1.5763,0.3757,-0.1711,49.27908386,-122.98361161,0.00000000,
7.6850,0.0007,0.9875,0.1322,-0.9887,0.6133,-0.3143,1.5763,0.3757,-0.1711,49.27908386,-122.98361161,0.00000000,
7.7040,0.0007,0.9875,0.1322,-0.9887,0.6133,-0.3143,1.8140,1.0226,-0.3059,49.27908386,-122.98361161,0.00000000,
7.7240,0.0007,0.9875,0.1322,1.1833,-0.3933,0.3333,1.8140,1.0226,-0.3059,49.27908386,-122.98361161,0.00000000,
7.7420,-0.3264,0.8706,-0.1107,1.1833,-0.3933,0.3333,1.8140,1.0226,-0.3059,49.27908386,-122.98361161,0.00000000,
7.7620,-0.3264,0.8706,-0.1107,1.1833,-0.3933,0.3333,1.7719,0.5379,-0.1696,49.27908386,-122.98361161,0.00000000,
7.7810,-0.3264,0.8706,-0.1107,0.3411,0.1385,-0.1179,1.7719,0.5379,-0.1696,49.27908386,-122.98361161,0.00000000,
7.8190,-0.3220,0.8906,0.0274,0.3411,0.1385,-0.1179,1.7719,0.5379,-0.1696,49.27908386,-122.98361161,0.00000000,
7.8380,-0.3220,0.8906,0.0274,0.3411,0.1385,-0.1179,1.4108,0.1941,-0.2395,49.27908386,-122.98361161,0.00000000,
7.8560,-0.3220,0.8906,0.0274,-1.5658,-1.7486,0.4197,1.4108,0.1941,-0.2395,49.27908386,-122.98361161,0.00000000,
7.8760,-0.1249,1.0409,-0.0078,-1.5658,-1.7486,0.4197,1.4108,0.1941,-0.2395,49.27908386,-122.98361161,0.00000000,
7.8950,-0.1249,1.0409,-0.0078,-1.5658,-1.7486,0.4197,0.6195,0.7143,-0.0879,49.27908386,-122.98361161,0.00000000,
7.9140,-0.1249,1.0409,-0.0078,0.4065,0.5964,2.1320,0.6195,0.7143,-0.0879,49.27908386,-122.98361161,0.00000000,
7.9520,-0.2624,0.9258,-0.0911,0.4065,0.5964,2.1320,0.6195,0.7143,-0.0879,49.27908386,-122.98361161,0.00000000,
7.9710,-0.2624,0.9258,-0.0911,0.4065,0.5964,2.1320,0.1707,0.7569,0.1734,49.27908386,-122.98361161,0.00000000,
7.9900,-0.2624,0.9258,-0.0911,0.2604,-0.0795,0.7802,0.1707,0.7569,0.1734,49.27908386,-122.98361161,0.00000000,
8.0090,-0.2389,0.9787,-0.0691,0.2604,-0.0795,0.7802,0.1707,0.7569,0.1734,49.27908386,-122.98361161,0.00000000,
8.0280,-0.2389,0.9787,-0.0691,0.2604,-0.0795,0.7802,0.3854,0.7705,-0.0465,49.27908386,-122.98361161,0.00000000,
8.0460,-0.2389,0.9787,-0.0691,-0.6382,0.2112,1.3088,0.3854,0.7705,-0.0465,49.27908386,-122.98361161,0.00000000,
8.0860,-0.3141,1.0494,0.0184,-0.6382,0.2112,1.3088,0.3854,0.7705,-0.0465,49.27908386,-122.98361161,0.00000000,
8.1040,-0.3141,1.0494,0.0184,-0.6382,0.2112,1.3088,0.5706,0.5888,0.0887,49.27908386,-122.98361161,0.00000000,
8.1220,-0.3141,1.0494,0.0184,-1.1567,-0.0155,1.5689,0.5706,0.5888,0.0887,49.27908386,-122.98361161,0.00000000,
8.1420,-0.5424,1.1804,0.0324,-1.1567,-0.0155,1.5689,0.5706,0.5888,0.0887,49.27908386,-122.98361161,0.00000000,
8.1620,-0.5424,1.1804,0.0324,-1.1567,-0.0155,1.5689,0.0063,0.4744,-0.0518,49.27908386,-122.98361161,0.00000000,
8.1800,-0.5424,1.1804,0.0324,-1.9314,1.4885,3.6118,0.0063,0.4744,-0.0518,49.27908386,-122.98361161,0.00000000,
8.2190,-0.5290,1.4652,-0.3145,-1.9314,1.4885,3.6118,0.0063,0.4744,-0.0518,49.27908386,-122.98361161,0.00000000,
8.2380,-0.5290,1.4652,-0.3145,-1.9314,1.4885,3.6118,-1.3802,-1.3441,0.0284,49.27908386,-122.98361161,0.00000000,
8.2570,-0.5290,1.4652,-0.3145,-4.0441,4.8299,-1.4556,-1.3802,-1.3441,0.0284,49.27908386,-122.98361161,0.00000000,
8.2750,-0.3526,1.2034,-0.0692,-4.0441,4.8299,-1.4556,-1.3802,-1.3441,0.0284,49.27908386,-122.98361161,0.00000000,
8.2960,-0.3526,1.2034,-0.0692,-4.0441,4.8299,-1.4556,-2.6918,-1.7008,0.6577,49.27908386,-122.98361161,0.00000000,
8.3140,-0.3526,1.2034,-0.0692,-2.4236,1.5913,-3.1786,-2.6918,-1.7008,0.6577,49.27908386,-122.98361161,0.00000000,
8.3510,-0.2307,1.1906,-0.1368,-2.4236,1.5913,-3.1786,-2.6918,-1.7008,0.6577,49.27908386,-122.98361161,0.00000000,
8.3700,-0.2307,1.1906,-0.1368,-2.4236,1.5913,-3.1786,-1.9575,-1.4998,-0.3820,49.27908386,-122.98361161,0.00000000,
8.3890,-0.2307,1.1906,-0.1368,-0.4090,3.4840,-2.6733,-1.9575,-1.4998,-0.3820,49.27908386,-122.98361161,0.00000000,
8.4080,-0.3830,0.8281,-0.0423,-0.4090,3.4840,-2.6733,-1.9575,-1.4998,-0.3820,49.27908386,-122.98361161,0.00000000,
8.4280,-0.3830,0.8281,-0.0423,-0.4090,3.4840,-2.6733,-1.7598,-3.1493,-0.3951,49.27908386,-122.98361161,0.00000000,
8.4470,-0.3830,0.8281,-0.0423,-2.1938,-0.0216,-5.9503,-1.7598,-3.1493,-0.3951,49.27908386,-122.98361161,0.00000000,
8.4870,-0.1215,0.7596,0.2281,-2.1938,-0.0216,-5.9503,-1.7598,-3.1493,-0.3951,49.27908386,-122.98361161,0.00000000,
8.4980,-0.1215,0.7596,0.2281,-2.1938,-0.0216,-5.9503,-0.7415,-2.8269,-0.4801,49.27908386,-122.98361161,0.00000000,
8.5140,-0.1215,0.7596,0.2281,-1.6858,-1.4524,-1.5931,-0.7415,-2.8269,-0.4801,49.27908386,-122.98361161,0.00000000,
8.5510,0.2211,0.6597,-0.0354,-1.6858,-1.4524,-1.5931,-0.7415,-2.8269,-0.4801,49.27908386,-122.98361161,0.00000000,
8.5700,0.2211,0.6597,-0.0354,-1.6858,-1.4524,-1.5931,-0.9862,-0.7231,-0.3565,49.27908386,-122.98361161,0.00000000,
8.5900,0.2211,0.6597,-0.0354,2.5196,-1.3942,-4.7729,-0.9862,-0.7231,-0.3565,49.27908386,-122.98361161,0.00000000,
8.6090,0.0379,0.5486,0.4295,2.5196,-1.3942,-4.7729,-0.9862,-0.7231,-0.3565,49.27908386,-122.98361161,0.00000000,
8.6280,0.0379,0.5486,0.4295,2.5196,-1.3942,-4.7729,-0.5543,0.0237,-0.0245,49.27908386,-122.98361161,0.00000000,
8.6460,0.0379,0.5486,0.4295,2.3276,-3.0240,-2.8365,-0.5543,0.0237,-0.0245,49.27908386,-122.98361161,0.00000000,
8.6850,-0.0637,0.7876,0.6227,2.3276,-3.0240,-2.8365,-0.5543,0.0237,-0.0245,49.27908386,-122.98361161,0.00000000,
8.7040,-0.0637,0.7876,0.6227,2.3276,-3.0240,-2.8365,-0.4818,0.3946,-0.1685,49.27908386,-122.98361161,0.00000000,
8.7230,-0.0637,0.7876,0.6227,1.0417,-1.7398,0.1203,-0.4818,0.3946,-0.1685,49.27908386,-122.98361161,0.00000000,
8.7420,-0.2732,0.8154,0.9542,1.0417,-1.7398,0.1203,-0.4818,0.3946,-0.1685,49.27908386,-122.98361161,0.00000000,
8.7610,-0.2732,0.8154,0.9542,1.0417,-1.7398,0.1203,-0.0200,-0.3058,-0.5987,49.27908386,-122.98361161,0.00000000,
8.7800,-0.2732,0.8154,0.9542,-0.1752,0.4742,3.2633,-0.0200,-0.3058,-0.5987,49.27908386,-122.98361161,0.00000000,
8.8190,-0.2285,0.1893,0.5026,-0.1752,0.4742,3.2633,-0.0200,-0.3058,-0.5987,49.27908386,-122.98361161,0.00000000,
8.8380,-0.2285,0.1893,0.5026,-0.1752,0.4742,3.2633,1.5002,0.2227,-0.9344,49.27908386,-122.98361161,0.00000000,
8.8560,-0.2285,0.1893,0.5026,-1.0260,-3.4622,3.1398,1.5002,0.2227,-0.9344,49.27908386,-122.98361161,0.00000000,
8.8750,-0.5330,2.5240,0.3348,-1.0260,-3.4622,3.1398,1.5002,0.2227,-0.9344,49.27908386,-122.98361161,0.00000000,
8.8950,-0.5330,2.5240,0.3348,-1.0260,-3.4622,3.1398,0.7781,-1.3514,0.3624,49.27908386,-122.98361161,0.00000000,
8.9130,-0.5330,2.5240,0.3348,-1.2904,2.6364,-0.5765,0.7781,-1.3514,0.3624,49.27908386,-122.98361161,0.00000000,
8.9510,1.0085,-0.1345,-0.0647,-1.2904,2.6364,-0.5765,0.7781,-1.3514,0.3624,49.27908386,-122.98361161,0.00000000,
8.9710,1.0085,-0.1345,-0.0647,-1.2904,2.6364,-0.5765,0.9891,2.9321,-0.4460,49.27908386,-122.98361161,0.00000000,
8.9890,1.0085,-0.1345,-0.0647,9.2933,1.2036,-2.8872,0.9891,2.9321,-0.4460,49.27908386,-122.98361161,0.00000000,
9.0080,-0.9246,1.6247,-0.2639,9.2933,1.2036,-2.8872,0.9891,2.9321,-0.4460,49.27908386,-122.98361161,0.00000000,
9.0280,-0.9246,1.6247,-0.2639,9.2933,1.2036,-2.8872,1.2923,1.2526,0.1390,49.27908386,-122.98361161,0.00000000,
9.0470,-0.9246,1.6247,-0.2639,-7.0391,4.2365,-4.3933,1.2923,1.2526,0.1390,49.27908386,-122.98361161,0.00000000,
9.0860,-0.2266,0.6051,0.1720,-7.0391,4.2365,-4.3933,1.2923,1.2526,0.1390,49.27908386,-122.98361161,0.00000000,
9.1040,-0.2266,0.6051,0.1720,-7.0391,4.2365,-4.3933,1.9461,1.6528,-0.3055,49.27908386,-122.98361161,0.00000000,
9.1220,-0.2266,0.6051,0.1720,4.5874,-3.4515,3.0439,1.9461,1.6528,-0.3055,49.27908386,-122.98361161,0.00000000,
9.1400,-0.4906,0.8366,-0.0230,4.5874,-3.4515,3.0439,1.9461,1.6528,-0.3055,49.27908386,-122.98361161,0.00000000,
9.1600,-0.4906,0.8366,-0.0230,4.5874,-3.4515,3.0439,1.4347,0.6585,0.0774,49.27908386,-122.98361161,0.00000000,
9.1800,-0.4906,0.8366,-0.0230,-3.7396,-0.9619,-0.4184,1.4347,0.6585,0.0774,49.27908386,-122.98361161,0.00000000,
9.2170,-0.1760,0.9408,0.1155,-3.7396,-0.9619,-0.4184,1.4347,0.6585,0.0774,49.27908386,-122.98361161,0.00000000,
9.2370,-0.1760,0.9408,0.1155,-3.7396,-0.9619,-0.4184,1.2254,0.7730,-0.0744,49.27908386,-122.98361161,0.00000000,
9.2560,-0.1760,0.9408,0.1155,0.6619,-0.7411,3.1585,1.2254,0.7730,-0.0744,49.27908386,-122.98361161,0.00000000,
9.2750,-0.2385,0.8566,-0.0227,0.6619,-0.7411,3.1585,1.2254,0.7730,-0.0744,49.27908386,-122.98361161,0.00000000,
9.2930,-0.2385,0.8566,-0.0227,0.6619,-0.7411,3.1585,0.7558,1.2290,0.2118,49.27908386,-122.98361161,0.00000000,
9.3130,-0.2385,0.8566,-0.0227,0.5010,-0.2423,2.3766,0.7558,1.2290,0.2118,49.27908386,-122.98361161,0.00000000,
9.3510,-0.4775,0.8933,-0.0414,0.5010,-0.2423,2.3766,0.7558,1.2290,0.2118,49.27908386,-122.98361161,0.00000000,
9.3690,-0.4775,0.8933,-0.0414,0.5010,-0.2423,2.3766,0.6395,0.7974,0.2074,49.27908386,-122.98361161,0.00000000,
9.3880,-0.4775,0.8933,-0.0414,-0.9670,-0.9363,2.5176,0.6395,0.7974,0.2074,49.27908386,-122.98361161,0.00000000,
9.4070,-0.4262,1.1648,0.0859,-0.9670,-0.9363,2.5176,0.6395,0.7974,0.2074,49.27908386,-122.98361161,0.00000000,
9.4260,-0.4262,1.1648,0.0859,-0.9670,-0.9363,2.5176,0.0257,0.3616,-0.0531,49.27908386,-122.98361161,0.00000000,
9.4450,-0.4262,1.1648,0.0859,-2.3208,1.1563,2.3053,0.0257,0.3616,-0.0531,49.27908386,-122.98361161,0.00000000,
9.4840,-0.7547,1.5057,-0.2036,-2.3208,1.1563,2.3053,0.0257,0.3616,-0.0531,49.27908386,-122.98361161,0.00000000,
9.4970,-0.7547,1.5057,-0.2036,-2.3208,1.1563,2.3053,-1.7474,-0.9596,-0.0387,49.27908386,-122.98361161,0.00000000,
9.5120,-0.7547,1.5057,-0.2036,-4.0142,3.7661,0.3428,-1.7474,-0.9596,-0.0387,49.27908386,-122.98361161,0.00000000,
9.5500,-0.3514,1.3572,-0.1781,-4.0142,3.7661,0.3428,-1.7474,-0.9596,-0.0387,49.27908386,-122.98361161,0.00000000,
9.5690,-0.3514,1.3572,-0.1781,-4.0142,3.7661,0.3428,-3.0777,-1.6291,0.3694,49.27908386,-122.98361161,0.00000000,
9.5880,-0.3514,1.3572,-0.1781,-2.5372,3.7120,-4.2543,-3.0777,-1.6291,0.3694,49.27908386,-122.98361161,0.00000000,
9.6080,-0.3849,1.3432,-0.0309,-2.5372,3.7120,-4.2543,-3.0777,-1.6291,0.3694,49.27908386,-122.98361161,0.00000000,
9.6270,-0.3849,1.3432,-0.0309,-2.5372,3.7120,-4.2543,-2.2568,-1.6125,-0.2846,49.27908386,-122.98361161,0.00000000,
9.6450,-0.3849,1.3432,-0.0309,-0.6051,5.8129,-2.9781,-2.2568,-1.6125,-0.2846,49.27908386,-122.98361161,0.00000000,
9.6850,-0.4949,0.9191,-0.0996,-0.6051,5.8129,-2.9781,-2.2568,-1.6125,-0.2846,49.27908386,-122.98361161,0.00000000,
9.7030,-0.4949,0.9191,-0.0996,-0.6051,5.8129,-2.9781,-1.5974,-3.2592,-0.5191,49.27908386,-122.98361161,0.00000000,
9.7210,-0.4949,0.9191,-0.0996,-3.6817,1.4089,-4.7473,-1.5974,-3.2592,-0.5191,49.27908386,-122.98361161,0.00000000,
9.7410,0.0308,0.5257,0.0567,-3.6817,1.4089,-4.7473,-1.5974,-3.2592,-0.5191,49.27908386,-122.98361161,0.00000000,
9.7600,0.0308,0.5257,0.0567,-3.6817,1.4089,-4.7473,-0.7586,-2.9746,-0.3572,49.27908386,-122.98361161,0.00000000,
9.7790,0.0308,0.5257,0.0567,-0.7608,-1.9780,-5.5057,-0.7586,-2.9746,-0.3572,49.27908386,-122.98361161,0.00000000,
9.8170,0.2628,0.3456,0.0905,-0.7608,-1.9780,-5.5057,-0.7586,-2.9746,-0.3572,49.27908386,-122.98361161,0.00000000,
9.8360,0.2628,0.3456,0.0905,-0.7608,-1.9780,-5.5057,-0.2644,-0.1616,-0.3999,49.27908386,-122.98361161,0.00000000,
9.8560,0.2628,0.3456,0.0905,4.2099,-4.7361,-3.1540,-0.2644,-0.1616,-0.3999,49.27908386,-122.98361161,0.00000000,
9.8750,-0.0270,0.4736,0.2492,4.2099,-4.7361,-3.1540,-0.2644,-0.1616,-0.3999,49.27908386,-122.98361161,0.00000000,
9.8940,-0.0270,0.4736,0.2492,4.2099,-4.7361,-3.1540,0.3734,0.3743,-0.2668,49.27908386,-122.98361161,0.00000000,
9.9120,-0.0270,0.4736,0.2492,2.7344,-4.7529,-3.2258,0.3734,0.3743,-0.2668,49.27908386,-122.98361161,0.00000000,
9.9500,-0.4056,1.0625,0.8874,2.7344,-4.7529,-3.2258,0.3734,0.3743,-0.2668,49.27908386,-122.98361161,0.00000000,
9.9690,-0.4056,1.0625,0.8874,2.7344,-4.7529,-3.2258,0.6856,-0.7315,-0.3460,49.27908386,-122.98361161,0.00000000,
9.9890,-0.4056,1.0625,0.8874,-0.5361,-1.7304,2.1014,0.6856,-0.7315,-0.3460,49.27908386,-122.98361161,0.00000000,
10.0080,0.2038,0.9606,0.6767,-0.5361,-1.7304,2.1014,0.6856,-0.7315,-0.3460,49.27908386,-122.98361161,0.00000000,
10.0270,0.2038,0.9606,0.6767,-0.5361,-1.7304,2.1014,0.4367,-0.0691,-0.6120,49.27908386,-122.98361161,0.00000000,
10.0460,0.2038,0.9606,0.6767,0.1583,3.3016,4.9227,0.4367,-0.0691,-0.6120,49.27908386,-122.98361161,0.00000000,
10.0850,-0.6607,1.8531,0.3529,0.1583,3.3016,4.9227,0.4367,-0.0691,-0.6120,49.27908386,-122.98361161,0.00000000,
10.1030,-0.6607,1.8531,0.3529,0.1583,3.3016,4.9227,0.2454,-0.7914,0.3160,49.27908386,-122.98361161,0.00000000,
10.1210,-0.6607,1.8531,0.3529,1.9420,2.1588,1.2067,0.2454,-0.7914,0.3160,49.27908386,-122.98361161,0.00000000,
10.1410,0.7487,0.2249,-0.0788,1.9420,2.1588,1.2067,0.2454,-0.7914,0.3160,49.27908386,-122.98361161,0.00000000,
10.1600,0.7487,0.2249,-0.0788,1.9420,2.1588,1.2067,0.4664,2.0890,-0.5677,49.27908386,-122.98361161,0.00000000,
10.1790,0.7487,0.2249,-0.0788,3.8878,1.6822,-4.7356,0.4664,2.0890,-0.5677,49.27908386,-122.98361161,0.00000000,
10.2170,-0.9710,1.3673,-0.1933,3.8878,1.6822,-4.7356,0.4664,2.0890,-0.5677,49.27908386,-122.98361161,0.00000000,
10.2360,-0.9710,1.3673,-0.1933,3.8878,1.6822,-4.7356,1.3659,1.1414,-0.1327,49.27908386,-122.98361161,0.00000000,
10.2560,-0.9710,1.3673,-0.1933,-4.5741,1.8529,-2.0717,1.3659,1.1414,-0.1327,49.27908386,-122.98361161,0.00000000,
10.2770,-0.2068,0.7213,0.1629,-4.5741,1.8529,-2.0717,1.3659,1.1414,-0.1327,49.27908386,-122.98361161,0.00000000,
10.2920,-0.2068,0.7213,0.1629,-4.5741,1.8529,-2.0717,1.9166,1.0793,-0.4664,49.27908386,-122.98361161,0.00000000,
10.3120,-0.2068,0.7213,0.1629,2.7851,-1.5399,1.0821,1.9166,1.0793,-0.4664,49.27908386,-122.98361161,0.00000000,
10.3500,-0.4583,0.8034,0.0167,2.7851,-1.5399,1.0821,1.9166,1.0793,-0.4664,49.27908386,-122.98361161,0.00000000,
10.3690,-0.4583,0.8034,0.0167,2.7851,-1.5399,1.0821,1.7171,0.4843,-0.1460,49.27908386,-122.98361161,0.00000000,
10.3870,-0.4583,0.8034,0.0167,-2.3891,-1.2451,0.1451,1.7171,0.4843,-0.1460,49.27908386,-122.98361161,0.00000000,
10.4070,-0.1864,0.8771,0.1054,-2.3891,-1.2451,0.1451,1.7171,0.4843,-0.1460,49.27908386,-122.98361161,0.00000000,
10.4250,-0.1864,0.8771,0.1054,-2.3891,-1.2451,0.1451,1.3284,1.3177,0.0999,49.27908386,-122.98361161,0.00000000,
10.4450,-0.1864,0.8771,0.1054,0.7718,-1.1687,3.1149,1.3284,1.3177,0.0999,49.27908386,-122.98361161,0.00000000,
10.4830,-0.3341,0.8183,0.0878,0.7718,-1.1687,3.1149,1.3284,1.3177,0.0999,49.27908386,-122.98361161,0.00000000,
10.4970,-0.3341,0.8183,0.0878,0.7718,-1.1687,3.1149,0.8586,1.5413,0.3102,49.27908386,-122.98361161,0.00000000,
10.5110,-0.3341,0.8183,0.0878,0.1643,-0.2514,3.4710,0.8586,1.5413,0.3102,49.27908386,-122.98361161,0.00000000,
10.5500,-0.5653,0.8192,-0.0358,0.1643,-0.2514,3.4710,0.8586,1.5413,0.3102,49.27908386,-122.98361161,0.00000000,
10.5680,-0.5653,0.8192,-0.0358,0.1643,-0.2514,3.4710,0.6610,0.5293,0.1586,49.27908386,-122.98361161,0.00000000,
10.5880,-0.5653,0.8192,-0.0358,-2.5831,-1.7075,2.5648,0.6610,0.5293,0.1586,49.27908386,-122.98361161,0.00000000,
10.6060,-0.5401,1.2864,-0.0157,-2.5831,-1.7075,2.5648,0.6610,0.5293,0.1586,49.27908386,-122.98361161,0.00000000,
10.6250,-0.5401,1.2864,-0.0157,-2.5831,-1.7075,2.5648,-0.2157,0.4075,-0.3104,49.27908386,-122.98361161,0.00000000,
10.6450,-0.5401,1.2864,-0.0157,-1.6473,1.7303,2.3262,-0.2157,0.4075,-0.3104,49.27908386,-122.98361161,0.00000000,
10.6820,-0.5983,1.5370,-0.2915,-1.6473,1.7303,2.3262,-0.2157,0.4075,-0.3104,49.27908386,-122.98361161,0.00000000,
10.7010,-0.5983,1.5370,-0.2915,-1.6473,1.7303,2.3262,-2.3488,-1.1460,-0.1162,49.27908386,-122.98361161,0.00000000,
10.7200,-0.5983,1.5370,-0.2915,-4.4567,5.6484,-1.6752,-2.3488,-1.1460,-0.1162,49.27908386,-122.98361161,0.00000000,
10.7400,-0.3609,1.4939,-0.1517,-4.4567,5.6484,-1.6752,-2.3488,-1.1460,-0.1162,49.27908386,-122.98361161,0.00000000,
10.7580,-0.3609,1.4939,-0.1517,-4.4567,5.6484,-1.6752,-2.7536,-1.5338,0.1390,49.27908386,-122.98361161,0.00000000,
10.7780,-0.3609,1.4939,-0.1517,-0.5249,3.6735,-4.1271,-2.7536,-1.5338,0.1390,49.27908386,-122.98361161,0.00000000,
10.8160,-0.4652,1.1862,-0.0265,-0.5249,3.6735,-4.1271,-2.7536,-1.5338,0.1390,49.27908386,-122.98361161,0.00000000,
10.8350,-0.4652,1.1862,-0.0265,-0.5249,3.6735,-4.1271,-1.9882,-2.3201,-0.0086,49.27908386,-122.98361161,0.00000000,
10.8550,-0.4652,1.1862,-0.0265,-1.6518,5.1119,-3.2201,-1.9882,-2.3201,-0.0086,49.27908386,-122.98361161,0.00000000,
10.8740,-0.2070,0.7173,-0.1191,-1.6518,5.1119,-3.2201,-1.9882,-2.3201,-0.0086,49.27908386,-122.98361161,0.00000000,
10.8920,-0.2070,0.7173,-0.1191,-1.6518,5.1119,-3.2201,-1.4166,-2.3416,0.2628,49.27908386,-122.98361161,0.00000000,
10.9120,-0.2070,0.7173,-0.1191,-2.0199,0.1612,-5.2670,-1.4166,-2.3416,0.2628,49.27908386,-122.98361161,0.00000000,
10.9500,0.3309,0.3445,0.1521,-2.0199,0.1612,-5.2670,-1.4166,-2.3416,0.2628,49.27908386,-122.98361161,0.00000000,
10.9690,0.3309,0.3445,0.1521,-2.0199,0.1612,-5.2670,-0.4530,-0.6671,0.0331,49.27908386,-122.98361161,0.00000000,
10.9890,0.3309,0.3445,0.1521,3.1722,-4.2170,-3.4498,-0.4530,-0.6671,0.0331,49.27908386,-122.98361161,0.00000000,
11.0080,0.0557,0.3816,0.0649,3.1722,-4.2170,-3.4498,-0.4530,-0.6671,0.0331,49.27908386,-122.98361161,0.00000000,
11.0270,0.0557,0.3816,0.0649,3.1722,-4.2170,-3.4498,0.0180,1.0683,-0.3963,49.27908386,-122.98361161,0.00000000,
11.0460,0.0557,0.3816,0.0649,4.8822,-5.4708,-3.0345,0.0180,1.0683,-0.3963,49.27908386,-122.98361161,0.00000000,
11.0840,-0.4439,0.8477,0.7205,4.8822,-5.4708,-3.0345,0.0180,1.0683,-0.3963,49.27908386,-122.98361161,0.00000000,
11.1030,-0.4439,0.8477,0.7205,4.8822,-5.4708,-3.0345,0.5050,-0.2109,-0.4230,49.27908386,-122.98361161,0.00000000,
11.1220,-0.4439,0.8477,0.7205,-0.0598,-3.1664,-0.2108,0.5050,-0.2109,-0.4230,49.27908386,-122.98361161,0.00000000,
11.1390,-0.2852,1.2631,0.8283,-0.0598,-3.1664,-0.2108,0.5050,-0.2109,-0.4230,49.27908386,-122.98361161,0.00000000,
11.1600,-0.2852,1.2631,0.8283,-0.0598,-3.1664,-0.2108,0.1217,-0.7767,-0.3914,49.27908386,-122.98361161,0.00000000,
11.1790,-0.2852,1.2631,0.8283,-2.8759,3.7034,6.0801,0.1217,-0.7767,-0.3914,49.27908386,-122.98361161,0.00000000,
11.2180,-0.1707,0.9574,0.4449,-2.8759,3.7034,6.0801,0.1217,-0.7767,-0.3914,49.27908386,-122.98361161,0.00000000,
11.2360,-0.1707,0.9574,0.4449,-2.8759,3.7034,6.0801,0.1454,-0.2896,-0.4837,49.27908386,-122.98361161,0.00000000,
11.2550,-0.1707,0.9574,0.4449,3.9149,-1.4087,1.7433,0.1454,-0.2896,-0.4837,49.27908386,-122.98361161,0.00000000,
11.2730,0.3967,0.9935,-0.0880,3.9149,-1.4087,1.7433,0.1454,-0.2896,-0.4837,49.27908386,-122.98361161,0.00000000,
11.2930,0.3967,0.9935,-0.0880,3.9149,-1.4087,1.7433,0.2079,0.6705,0.4055,49.27908386,-122.98361161,0.00000000,
11.3110,0.3967,0.9935,-0.0880,-2.9448,6.5921,-3.2250,0.2079,0.6705,0.4055,49.27908386,-122.98361161,0.00000000,
11.3500,-0.8209,1.2164,-0.2964,-2.9448,6.5921,-3.2250,0.2079,0.6705,0.4055,49.27908386,-122.98361161,0.00000000,
11.3680,-0.8209,1.2164,-0.2964,-2.9448,6.5921,-3.2250,1.3738,1.7378,-0.3722,49.27908386,-122.98361161,0.00000000,
11.3870,-0.8209,1.2164,-0.2964,7.5881,-2.7388,-1.8593,1.3738,1.7378,-0.3722,49.27908386,-122.98361161,0.00000000,
11.4050,-0.0701,0.8367,0.1443,7.5881,-2.7388,-1.8593,1.3738,1.7378,-0.3722,49.27908386,-122.98361161,0.00000000,
11.4250,-0.0701,0.8367,0.1443,7.5881,-2.7388,-1.8593,1.5569,1.6792,-0.1868,49.27908386,-122.98361161,0.00000000,
11.4440,-0.0701,0.8367,0.1443,-2.7304,2.5313,-2.3437,1.5569,1.6792,-0.1868,49.27908386,-122.98361161,0.00000000,
11.4810,-0.5802,0.7769,-0.0747,-2.7304,2.5313,-2.3437,1.5569,1.6792,-0.1868,49.27908386,-122.98361161,0.00000000,
11.4970,-0.5802,0.7769,-0.0747,-2.7304,2.5313,-2.3437,1.7368,1.0383,-0.2069,49.27908386,-122.98361161,0.00000000,
11.5100,-0.5802,0.7769,-0.0747,-0.6361,-1.7693,0.9593,1.7368,1.0383,-0.2069,49.27908386,-122.98361161,0.00000000,
11.5480,-0.2945,0.8310,0.1506,-0.6361,-1.7693,0.9593,1.7368,1.0383,-0.2069,49.27908386,-122.98361161,0.00000000,
11.5670,-0.2945,0.8310,0.1506,-0.6361,-1.7693,0.9593,1.2872,1.1531,-0.0573,49.27908386,-122.98361161,0.00000000,
11.5870,-0.2945,0.8310,0.1506,-0.4905,-1.6536,2.1810,1.2872,1.1531,-0.0573,49.27908386,-122.98361161,0.00000000,
11.6060,-0.2727,0.8564,0.0619,-0.4905,-1.6536,2.1810,1.2872,1.1531,-0.0573,49.27908386,-122.98361161,0.00000000,
11.6250,-0.2727,0.8564,0.0619,-0.4905,-1.6536,2.1810,0.6231,1.4832,0.2640,49.27908386,-122.98361161,0.00000000,
11.6440,-0.2727,0.8564,0.0619,0.6653,-0.2639,3.1063,0.6231,1.4832,0.2640,49.27908386,-122.98361161,0.00000000,
11.6830,-0.5094,0.8024,-0.0084,0.6653,-0.2639,3.1063,0.6231,1.4832,0.2640,49.27908386,-122.98361161,0.00000000,
11.7020,-0.5094,0.8024,-0.0084,0.6653,-0.2639,3.1063,0.3582,1.0576,0.2425,49.27908386,-122.98361161,0.00000000,
11.7210,-0.5094,0.8024,-0.0084,-1.0165,-0.7569,2.8834,0.3582,1.0576,0.2425,49.27908386,-122.98361161,0.00000000,
11.7390,-0.5026,0.9821,0.0208,-1.0165,-0.7569,2.8834,0.3582,1.0576,0.2425,49.27908386,-122.98361161,0.00000000,
11.7580,-0.5026,0.9821,0.0208,-1.0165,-0.7569,2.8834,0.5301,0.5669,-0.0884,49.27908386,-122.98361161,0.00000000,
11.7780,-0.5026,0.9821,0.0208,-2.5379,-0.7557,2.4302,0.5301,0.5669,-0.0884,49.27908386,-122.98361161,0.00000000,
11.8180,-0.7616,1.4504,-0.0442,-2.5379,-0.7557,2.4302,0.5301,0.5669,-0.0884,49.27908386,-122.98361161,0.00000000,
11.8360,-0.7616,1.4504,-0.0442,-2.5379,-0.7557,2.4302,-0.8182,-0.1020,-0.1308,49.27908386,-122.98361161,0.00000000,
11.8560,-0.7616,1.4504,-0.0442,-3.0104,2.3803,2.1434,-0.8182,-0.1020,-0.1308,49.27908386,-122.98361161,0.00000000,
11.8730,-0.3843,1.3315,-0.2381,-3.0104,2.3803,2.1434,-0.8182,-0.1020,-0.1308,49.27908386,-122.98361161,0.00000000,
11.8910,-0.3843,1.3315,-0.2381,-3.0104,2.3803,2.1434,-2.7600,-1.8450,0.2411,49.27908386,-122.98361161,0.00000000,
11.9120,-0.3843,1.3315,-0.2381,-3.1675,5.9116,-2.9467,-2.7600,-1.8450,0.2411,49.27908386,-122.98361161,0.00000000,
11.9510,-0.3209,1.5532,-0.0427,-3.1675,5.9116,-2.9467,-2.7600,-1.8450,0.2411,49.27908386,-122.98361161,0.00000000,
11.9680,-0.3209,1.5532,-0.0427,-3.1675,5.9116,-2.9467,-2.4396,-1.1998,0.2657,49.27908386,-122.98361161,0.00000000,
11.9870,-0.3209,1.5532,-0.0427,-0.2038,5.2654,-2.6988,-2.4396,-1.1998,0.2657,49.27908386,-122.98361161,0.00000000,
12.0070,-0.4504,0.9415,-0.1091,-0.2038,5.2654,-2.6988,-2.4396,-1.1998,0.2657,49.27908386,-122.98361161,0.00000000,
12.0250,-0.4504,0.9415,-0.1091,-0.2038,5.2654,-2.6988,-1.8010,-2.4899,-0.0015,49.27908386,-122.98361161,0.00000000,
12.0450,-0.4504,0.9415,-0.1091,-1.5988,2.2902,-4.0486,-1.8010,-2.4899,-0.0015,49.27908386,-122.98361161,0.00000000,
12.0830,-0.0576,0.5330,0.0188,-1.5988,2.2902,-4.0486,-1.8010,-2.4899,-0.0015,49.27908386,-122.98361161,0.00000000,
12.1030,-0.0576,0.5330,0.0188,-1.5988,2.2902,-4.0486,-1.1726,-2.0302,0.5237,49.27908386,-122.98361161,0.00000000,
12.1200,-0.0576,0.5330,0.0188,-1.4087,-2.1912,-4.6106,-1.1726,-2.0302,0.5237,49.27908386,-122.98361161,0.00000000,
12.1400,0.3075,0.3856,0.0602,-1.4087,-2.1912,-4.6106,-1.1726,-2.0302,0.5237,49.27908386,-122.98361161,0.00000000,
12.1590,0.3075,0.3856,0.0602,-1.4087,-2.1912,-4.6106,-0.3403,0.0125,0.0006,49.27908386,-122.98361161,0.00000000,
12.1780,0.3075,0.3856,0.0602,4.3208,-4.6885,-3.0829,-0.3403,0.0125,0.0006,49.27908386,-122.98361161,0.00000000,
12.2170,-0.0358,0.3963,0.2306,4.3208,-4.6885,-3.0829,-0.3403,0.0125,0.0006,49.27908386,-122.98361161,0.00000000,
12.2360,-0.0358,0.3963,0.2306,4.3208,-4.6885,-3.0829,0.5277,1.0219,-0.6040,49.27908386,-122.98361161,0.00000000,
12.2550,-0.0358,0.3963,0.2306,3.5212,-5.1536,-2.8701,0.5277,1.0219,-0.6040,49.27908386,-122.98361161,0.00000000,
12.2730,-0.7328,1.3635,1.1105,3.5212,-5.1536,-2.8701,0.5277,1.0219,-0.6040,49.27908386,-122.98361161,0.00000000,
12.2910,-0.7328,1.3635,1.1105,3.5212,-5.1536,-2.8701,0.9012,-1.4452,-0.3156,49.27908386,-122.98361161,0.00000000,
12.3110,-0.7328,1.3635,1.1105,-1.3933,-1.0053,4.3825,0.9012,-1.4452,-0.3156,49.27908386,-122.98361161,0.00000000,
12.3480,0.6009,0.8352,0.3682,-1.3933,-1.0053,4.3825,0.9012,-1.4452,-0.3156,49.27908386,-122.98361161,0.00000000,
12.3680,0.6009,0.8352,0.3682,-1.3933,-1.0053,4.3825,-0.2096,0.8142,-0.2563,49.27908386,-122.98361161,0.00000000,
12.3870,0.6009,0.8352,0.3682,0.1046,4.1667,4.2461,-0.2096,0.8142,-0.2563,49.27908386,-122.98361161,0.00000000,
12.4060,-0.7244,1.5265,0.0737,0.1046,4.1667,4.2461,-0.2096,0.8142,-0.2563,49.27908386,-122.98361161,0.00000000,
12.4250,-0.7244,1.5265,0.0737,0.1046,4.1667,4.2461,0.1463,-0.1892,0.1177,49.27908386,-122.98361161,0.00000000,
12.4450,-0.7244,1.5265,0.0737,2.0575,3.5460,0.1987,0.1463,-0.1892,0.1177,49.27908386,-122.98361161,0.00000000,
12.4830,0.1371,0.6077,0.0098,2.0575,3.5460,0.1987,0.1463,-0.1892,0.1177,49.27908386,-122.98361161,0.00000000,
12.4980,0.1371,0.6077,0.0098,2.0575,3.5460,0.1987,1.0687,1.6345,-0.7106,49.27908386,-122.98361161,0.00000000,
12.5110,0.1371,0.6077,0.0098,4.0848,-2.4801,-3.6550,1.0687,1.6345,-0.7106,49.27908386,-122.98361161,0.00000000,
12.5490,-0.4443,1.1956,-0.1228,4.0848,-2.4801,-3.6550,1.0687,1.6345,-0.7106,49.27908386,-122.98361161,0.00000000,
12.5680,-0.4443,1.1956,-0.1228,4.0848,-2.4801,-3.6550,1.2928,1.3875,0.0750,49.27908386,-122.98361161,0.00000000,
12.5870,-0.4443,1.1956,-0.1228,-5.0251,3.0103,-3.1841,1.2928,1.3875,0.0750,49.27908386,-122.98361161,0.00000000,
12.6060,-0.5082,0.7085,-0.0238,-5.0251,3.0103,-3.1841,1.2928,1.3875,0.0750,49.27908386,-122.98361161,0.00000000,
12.6240,-0.5082,0.7085,-0.0238,-5.0251,3.0103,-3.1841,1.8532,1.3833,-0.3511,49.27908386,-122.98361161,0.00000000,
12.6440,-0.5082,0.7085,-0.0238,3.2340,-1.9052,1.9537,1.8532,1.3833,-0.3511,49.27908386,-122.98361161,0.00000000,
12.6820,-0.3857,0.7894,0.0491,3.2340,-1.9052,1.9537,1.8532,1.3833,-0.3511,49.27908386,-122.98361161,0.00000000,
12.7010,-0.3857,0.7894,0.0491,3.2340,-1.9052,1.9537,1.2155,0.8157,-0.0559,49.27908386,-122.98361161,0.00000000,
12.7200,-0.3857,0.7894,0.0491,-2.7437,-1.6308,0.2899,1.2155,0.8157,-0.0559,49.27908386,-122.98361161,0.00000000,
12.7390,-0.2391,0.8613,0.0373,-2.7437,-1.6308,0.2899,1.2155,0.8157,-0.0559,49.27908386,-122.98361161,0.00000000,
12.7590,-0.2391,0.8613,0.0373,-2.7437,-1.6308,0.2899,0.7497,1.2067,0.1181,49.27908386,-122.98361161,0.00000000,
12.7760,-0.2391,0.8613,0.0373,0.5557,-0.3930,3.4317,0.7497,1.2067,0.1181,49.27908386,-122.98361161,0.00000000,
12.8160,-0.3071,0.9134,0.0266,0.5557,-0.3930,3.4317,0.7497,1.2067,0.1181,49.27908386,-122.98361161,0.00000000,
12.8350,-0.3071,0.9134,0.0266,0.5557,-0.3930,3.4317,0.4809,1.4615,0.3059,49.27908386,-122.98361161,0.00000000,
12.8530,-0.3071,0.9134,0.0266,0.3664,-0.3562,2.1440,0.4809,1.4615,0.3059,49.27908386,-122.98361161,0.00000000,
12.8720,-0.5423,0.9286,0.0465,0.3664,-0.3562,2.1440,0.4809,1.4615,0.3059,49.27908386,-122.98361161,0.00000000,
12.8920,-0.5423,0.9286,0.0465,0.3664,-0.3562,2.1440,0.5127,1.0023,0.0598,49.27908386,-122.98361161,0.00000000,
12.9100,-0.5423,0.9286,0.0465,-2.0323,-0.5771,3.1936,0.5127,1.0023,0.0598,49.27908386,-122.98361161,0.00000000,
12.9480,-0.7260,1.3240,0.0970,-2.0323,-0.5771,3.1936,0.5127,1.0023,0.0598,49.27908386,-122.98361161,0.00000000,
12.9680,-0.7260,1.3240,0.0970,-2.0323,-0.5771,3.1936,-0.4546,0.3091,-0.1860,49.27908386,-122.98361161,0.00000000,
12.9870,-0.7260,1.3240,0.0970,-2.7296,1.9925,3.3770,-0.4546,0.3091,-0.1860,49.27908386,-122.98361161,0.00000000,
13.0060,-0.5305,1.3906,-0.3175,-2.7296,1.9925,3.3770,-0.4546,0.3091,-0.1860,49.27908386,-122.98361161,0.00000000,
13.0260,-0.5305,1.3906,-0.3175,-2.7296,1.9925,3.3770,-2.5296,-1.6679,0.2029,49.27908386,-122.98361161,0.00000000,
13.0450,-0.5305,1.3906,-0.3175,-4.7917,5.5563,-1.8244,-2.5296,-1.6679,0.2029,49.27908386,-122.98361161,0.00000000,
13.0820,-0.3556,1.5486,-0.0760,-4.7917,5.5563,-1.8244,-2.5296,-1.6679,0.2029,49.27908386,-122.98361161,0.00000000,
13.1000,-0.3556,1.5486,-0.0760,-4.7917,5.5563,-1.8244,-2.6436,-1.0991,0.3338,49.27908386,-122.98361161,0.00000000,
13.1200,-0.3556,1.5486,-0.0760,-0.9705,4.1413,-3.2674,-2.6436,-1.0991,0.3338,49.27908386,-122.98361161,0.00000000,
13.1390,-0.5679,1.0009,-0.0758,-0.9705,4.1413,-3.2674,-2.6436,-1.0991,0.3338,49.27908386,-122.98361161,0.00000000,
13.1570,-0.5679,1.0009,-0.0758,-0.9705,4.1413,-3.2674,-1.8212,-2.5590,0.0076,49.27908386,-122.98361161,0.00000000,
13.1780,-0.5679,1.0009,-0.0758,-2.3317,3.0614,-3.7726,-1.8212,-2.5590,0.0076,49.27908386,-122.98361161,0.00000000,
13.2150,-0.1523,0.6305,-0.0638,-2.3317,3.0614,-3.7726,-1.8212,-2.5590,0.0076,49.27908386,-122.98361161,0.00000000,
13.2350,-0.1523,0.6305,-0.0638,-2.3317,3.0614,-3.7726,-1.2273,-2.4821,0.3102,49.27908386,-122.98361161,0.00000000,
13.2560,-0.1523,0.6305,-0.0638,-2.3683,-1.2018,-4.7440,-1.2273,-2.4821,0.3102,49.27908386,-122.98361161,0.00000000,
13.2720,0.2780,0.3961,0.0529,-2.3683,-1.2018,-4.7440,-1.2273,-2.4821,0.3102,49.27908386,-122.98361161,0.00000000,
13.2900,0.2780,0.3961,0.0529,-2.3683,-1.2018,-4.7440,-0.4082,-0.7341,-0.0559,49.27908386,-122.98361161,0.00000000,
13.3100,0.2780,0.3961,0.0529,3.0814,-4.3370,-3.6136,-0.4082,-0.7341,-0.0559,49.27908386,-122.98361161,0.00000000,
13.3490,0.0416,0.3785,0.0918,3.0814,-4.3370,-3.6136,-0.4082,-0.7341,-0.0559,49.27908386,-122.98361161,0.00000000,
13.3680,0.0416,0.3785,0.0918,3.0814,-4.3370,-3.6136,0.2903,0.7332,-0.7377,49.27908386,-122.98361161,0.00000000,
13.3860,0.0416,0.3785,0.0918,4.2284,-5.1302,-3.2248,0.2903,0.7332,-0.7377,49.27908386,-122.98361161,0.00000000,
13.4050,-0.5251,1.0850,0.8586,4.2284,-5.1302,-3.2248,0.2903,0.7332,-0.7377,49.27908386,-122.98361161,0.00000000,
13.4250,-0.5251,1.0850,0.8586,4.2284,-5.1302,-3.2248,0.6776,-0.7423,-0.3149,49.27908386,-122.98361161,0.00000000,
13.4440,-0.5251,1.0850,0.8586,-0.5461,-2.8419,0.9908,0.6776,-0.7423,-0.3149,49.27908386,-122.98361161,0.00000000,
13.4810,0.0432,1.1327,0.6816,-0.5461,-2.8419,0.9908,0.6776,-0.7423,-0.3149,49.27908386,-122.98361161,0.00000000,
13.4980,0.0432,1.1327,0.6816,-0.5461,-2.8419,0.9908,-0.1843,-0.3693,-0.4516,49.27908386,-122.98361161,0.00000000,
13.5090,0.0432,1.1327,0.6816,-1.7858,4.4678,6.3308,-0.1843,-0.3693,-0.4516,49.27908386,-122.98361161,0.00000000,
13.5480,-0.4994,1.4423,0.5188,-1.7858,4.4678,6.3308,-0.1843,-0.3693,-0.4516,49.27908386,-122.98361161,0.00000000,
13.5680,-0.4994,1.4423,0.5188,-1.7858,4.4678,6.3308,0.1351,-0.5760,-0.1559,49.27908386,-122.98361161,0.00000000,
13.5860,-0.4994,1.4423,0.5188,4.3166,1.4019,1.9336,0.1351,-0.5760,-0.1559,49.27908386,-122.98361161,0.00000000,
13.6060,0.5865,0.5199,-0.0787,4.3166,1.4019,1.9336,0.1351,-0.5760,-0.1559,49.27908386,-122.98361161,0.00000000,
13.6250,0.5865,0.5199,-0.0787,4.3166,1.4019,1.9336,0.4575,1.4786,-0.0701,49.27908386,-122.98361161,0.00000000,
13.6440,0.5865,0.5199,-0.0787,0.1849,0.5086,-4.7502,0.4575,1.4786,-0.0701,49.27908386,-122.98361161,0.00000000,
13.6810,-0.9462,1.1925,-0.3147,0.1849,0.5086,-4.7502,0.4575,1.4786,-0.0701,49.27908386,-122.98361161,0.00000000,
13.7000,-0.9462,1.1925,-0.3147,0.1849,0.5086,-4.7502,1.4283,1.0212,-0.2053,49.27908386,-122.98361161,0.00000000,
13.7200,-0.9462,1.1925,-0.3147,-0.4892,1.3695,-1.2411,1.4283,1.0212,-0.2053,49.27908386,-122.98361161,0.00000000,
13.7390,-0.0248,0.8395,0.1858,-0.4892,1.3695,-1.2411,1.4283,1.0212,-0.2053,49.27908386,-122.98361161,0.00000000,
13.7570,-0.0248,0.8395,0.1858,-0.4892,1.3695,-1.2411,1.8213,1.5149,-0.4064,49.27908386,-122.98361161,0.00000000,
13.7770,-0.0248,0.8395,0.1858,1.1917,0.0590,0.2575,1.8213,1.5149,-0.4064,49.27908386,-122.98361161,0.00000000,
13.8140,-0.5780,0.7524,-0.0973,1.1917,0.0590,0.2575,1.8213,1.5149,-0.4064,49.27908386,-122.98361161,0.00000000,
13.8340,-0.5780,0.7524,-0.0973,1.1917,0.0590,0.2575,1.6436,0.8414,-0.0643,49.27908386,-122.98361161,0.00000000,
13.8530,-0.5780,0.7524,-0.0973,-2.2713,-1.5937,0.3147,1.6436,0.8414,-0.0643,49.27908386,-122.98361161,0.00000000,
13.8710,-0.2432,0.8666,0.1208,-2.2713,-1.5937,0.3147,1.6436,0.8414,-0.0643,49.27908386,-122.98361161,0.00000000,
13.8900,-0.2432,0.8666,0.1208,-2.2713,-1.5937,0.3147,1.2417,1.0416,0.0894,49.27908386,-122.98361161,0.00000000,
13.9100,-0.2432,0.8666,0.1208,0.1524,-1.4608,2.7398,1.2417,1.0416,0.0894,49.27908386,-122.98361161,0.00000000,
13.9480,-0.3024,0.8364,0.0324,0.1524,-1.4608,2.7398,1.2417,1.0416,0.0894,49.27908386,-122.98361161,0.00000000,
13.9680,-0.3024,0.8364,0.0324,0.1524,-1.4608,2.7398,0.7526,1.2790,0.2807,49.27908386,-122.98361161,0.00000000,
13.9860,-0.3024,0.8364,0.0324,-0.1702,-0.5405,2.9133,0.7526,1.2790,0.2807,49.27908386,-122.98361161,0.00000000,
14.0060,-0.4316,0.8562,0.0166,-0.1702,-0.5405,2.9133,0.7526,1.2790,0.2807,49.27908386,-122.98361161,0.00000000,
14.0240,-0.4316,0.8562,0.0166,-0.1702,-0.5405,2.9133,0.5285,1.0707,0.2921,49.27908386,-122.98361161,0.00000000,
14.0430,-0.4316,0.8562,0.0166,-0.8558,-0.3332,3.0864,0.5285,1.0707,0.2921,49.27908386,-122.98361161,0.00000000,
14.0810,-0.6293,1.1053,0.0672,-0.8558,-0.3332,3.0864,0.5285,1.0707,0.2921,49.27908386,-122.98361161,0.00000000,
14.1000,-0.6293,1.1053,0.0672,-0.8558,-0.3332,3.0864,0.4392,0.3780,-0.1568,49.27908386,-122.98361161,0.00000000,
14.1190,-0.6293,1.1053,0.0672,-3.0745,-0.2519,2.9726,0.4392,0.3780,-0.1568,49.27908386,-122.98361161,0.00000000,
14.1390,-0.8068,1.6061,-0.2005,-3.0745,-0.2519,2.9726,0.4392,0.3780,-0.1568,49.27908386,-122.98361161,0.00000000,
14.1580,-0.8068,1.6061,-0.2005,-3.0745,-0.2519,2.9726,-1.5395,-0.8978,-0.1793,49.27908386,-122.98361161,0.00000000,
14.1760,-0.8068,1.6061,-0.2005,-5.1661,4.7098,1.2060,-1.5395,-0.8978,-0.1793,49.27908386,-122.98361161,0.00000000,
14.2150,-0.2504,1.3474,-0.2064,-5.1661,4.7098,1.2060,-1.5395,-0.8978,-0.1793,49.27908386,-122.98361161,0.00000000,
14.2330,-0.2504,1.3474,-0.2064,-5.1661,4.7098,1.2060,-2.9663,-1.8117,0.3643,49.27908386,-122.98361161,0.00000000,
14.2520,-0.2504,1.3474,-0.2064,-1.1977,4.2934,-3.7996,-2.9663,-1.8117,0.3643,49.27908386,-122.98361161,0.00000000,
14.2710,-0.3670,1.3421,-0.1194,-1.1977,4.2934,-3.7996,-2.9663,-1.8117,0.3643,49.27908386,-122.98361161,0.00000000,
14.2910,-0.3670,1.3421,-0.1194,-1.1977,4.2934,-3.7996,-2.2371,-1.6579,0.0282,49.27908386,-122.98361161,0.00000000,
14.3100,-0.3670,1.3421,-0.1194,-0.4083,5.5818,-3.1018,-2.2371,-1.6579,0.0282,49.27908386,-122.98361161,0.00000000,
14.3470,-0.3924,0.8448,-0.1330,-0.4083,5.5818,-3.1018,-2.2371,-1.6579,0.0282,49.27908386,-122.98361161,0.00000000,
14.3660,-0.3924,0.8448,-0.1330,-0.4083,5.5818,-3.1018,-1.8085,-2.5489,0.2247,49.27908386,-122.98361161,0.00000000,
14.3850,-0.3924,0.8448,-0.1330,-3.0124,0.9871,-5.4442,-1.8085,-2.5489,0.2247,49.27908386,-122.98361161,0.00000000,
14.4040,0.1523,0.4796,0.0566,-3.0124,0.9871,-5.4442,-1.8085,-2.5489,0.2247,49.27908386,-122.98361161,0.00000000,
14.4230,0.1523,0.4796,0.0566,-3.0124,0.9871,-5.4442,-0.9758,-1.5506,0.1228,49.27908386,-122.98361161,0.00000000,
14.4420,0.1523,0.4796,0.0566,0.8318,-3.1326,-4.4328,-0.9758,-1.5506,0.1228,49.27908386,-122.98361161,0.00000000,
14.4790,0.2115,0.3719,0.0530,0.8318,-3.1326,-4.4328,-0.9758,-1.5506,0.1228,49.27908386,-122.98361161,0.00000000,
14.4970,0.2115,0.3719,0.0530,0.8318,-3.1326,-4.4328,0.0185,0.3173,-0.6123,49.27908386,-122.98361161,0.00000000,
14.5090,0.2115,0.3719,0.0530,4.9600,-4.7890,-2.9003,0.0185,0.3173,-0.6123,49.27908386,-122.98361161,0.00000000,
14.5470,-0.2705,0.5257,0.4534,4.9600,-4.7890,-2.9003,0.0185,0.3173,-0.6123,49.27908386,-122.98361161,0.00000000,
14.5650,-0.2705,0.5257,0.4534,4.9600,-4.7890,-2.9003,0.7320,0.3826,-0.3846,49.27908386,-122.98361161,0.00000000,
14.5850,-0.2705,0.5257,0.4534,1.6222,-5.3962,-2.0082,0.7320,0.3826,-0.3846,49.27908386,-122.98361161,0.00000000,
14.6040,-0.4053,1.4615,0.9667,1.6222,-5.3962,-2.0082,0.7320,0.3826,-0.3846,49.27908386,-122.98361161,0.00000000,
14.6230,-0.4053,1.4615,0.9667,1.6222,-5.3962,-2.0082,0.5024,-0.9373,-0.3092,49.27908386,-122.98361161,0.00000000,
14.6420,-0.4053,1.4615,0.9667,-3.0518,2.7100,6.2013,0.5024,-0.9373,-0.3092,49.27908386,-122.98361161,0.00000000,
14.6800,0.3577,0.6374,0.4534,-3.0518,2.7100,6.2013,0.5024,-0.9373,-0.3092,49.27908386,-122.98361161,0.00000000,
14.6990,0.3577,0.6374,0.4534,-3.0518,2.7100,6.2013,0.3542,0.5869,-0.9066,49.27908386,-122.98361161,0.00000000,
14.7180,0.3577,0.6374,0.4534,5.2222,1.4376,2.1838,0.3542,0.5869,-0.9066,49.27908386,-122.98361161,0.00000000,
14.7380,-0.8847,1.6314,-0.0507,5.2222,1.4376,2.1838,0.3542,0.5869,-0.9066,49.27908386,-122.98361161,0.00000000,
14.7560,-0.8847,1.6314,-0.0507,5.2222,1.4376,2.1838,0.3788,-0.7224,0.7385,49.27908386,-122.98361161,0.00000000,
14.7760,-0.8847,1.6314,-0.0507,-5.6109,3.7813,1.2919,0.3788,-0.7224,0.7385,49.27908386,-122.98361161,0.00000000,
14.8150,0.3248,0.5291,-0.0098,-5.6109,3.7813,1.2919,0.3788,-0.7224,0.7385,49.27908386,-122.98361161,0.00000000,
14.8330,0.3248,0.5291,-0.0098,-5.6109,3.7813,1.2919,1.1356,1.7277,-1.1033,49.27908386,-122.98361161,0.00000000,
14.8520,0.3248,0.5291,-0.0098,10.0006,-2.9376,-3.2213,1.1356,1.7277,-1.1033,49.27908386,-122.98361161,0.00000000,
14.8700,-0.4185,1.1794,-0.0955,10.0006,-2.9376,-3.2213,1.1356,1.7277,-1.1033,49.27908386,-122.98361161,0.00000000,
14.8890,-0.4185,1.1794,-0.0955,10.0006,-2.9376,-3.2213,1.1076,1.4835,0.1212,49.27908386,-122.98361161,0.00000000,
14.9090,-0.4185,1.1794,-0.0955,-5.5338,3.4939,-3.5759,1.1076,1.4835,0.1212,49.27908386,-122.98361161,0.00000000,
14.9480,-0.6613,0.6891,-0.0516,-5.5338,3.4939,-3.5759,1.1076,1.4835,0.1212,49.27908386,-122.98361161,0.00000000,
14.9670,-0.6613,0.6891,-0.0516,-5.5338,3.4939,-3.5759,1.7056,1.0767,-0.3926,49.27908386,-122.98361161,0.00000000,
14.9860,-0.6613,0.6891,-0.0516,2.3171,-2.8788,2.1615,1.7056,1.0767,-0.3926,49.27908386,-122.98361161,0.00000000,
15.0060,-0.2890,0.8353,0.0475,2.3171,-2.8788,2.1615,1.7056,1.0767,-0.3926,49.27908386,-122.98361161,0.00000000,
15.0240,-0.2890,0.8353,0.0475,2.3171,-2.8788,2.1615,1.3078,0.4977,-0.1333,49.27908386,-122.98361161,0.00000000,
15.0420,-0.2890,0.8353,0.0475,-2.4561,-0.9400,0.6692,1.3078,0.4977,-0.1333,49.27908386,-122.98361161,0.00000000,
15.0810,-0.2157,0.9647,0.0242,-2.4561,-0.9400,0.6692,1.3078,0.4977,-0.1333,49.27908386,-122.98361161,0.00000000,
15.1000,-0.2157,0.9647,0.0242,-2.4561,-0.9400,0.6692,0.4612,1.3076,0.0209,49.27908386,-122.98361161,0.00000000,
15.1190,-0.2157,0.9647,0.0242,1.2515,0.0945,2.3081,0.4612,1.3076,0.0209,49.27908386,-122.98361161,0.00000000,
15.1370,-0.4180,0.8315,-0.0001,1.2515,0.0945,2.3081,0.4612,1.3076,0.0209,49.27908386,-122.98361161,0.00000000,
15.1570,-0.4180,0.8315,-0.0001,1.2515,0.0945,2.3081,0.2386,1.3156,0.1748,49.27908386,-122.98361161,0.00000000,
15.1760,-0.4180,0.8315,-0.0001,0.4035,-0.3044,2.6945,0.2386,1.3156,0.1748,49.27908386,-122.98361161,0.00000000,
15.2140,-0.4811,0.8446,-0.0879,0.4035,-0.3044,2.6945,0.2386,1.3156,0.1748,49.27908386,-122.98361161,0.00000000,
15.2340,-0.4811,0.8446,-0.0879,0.4035,-0.3044,2.6945,0.5502,0.9472,0.0971,49.27908386,-122.98361161,0.00000000,
15.2520,-0.4811,0.8446,-0.0879,-1.9412,-1.0707,2.2238,0.5502,0.9472,0.0971,49.27908386,-122.98361161,0.00000000,
15.2700,-0.4708,1.1509,0.0671,-1.9412,-1.0707,2.2238,0.5502,0.9472,0.0971,49.27908386,-122.98361161,0.00000000,
15.2910,-0.4708,1.1509,0.0671,-1.9412,-1.0707,2.2238,-0.0432,1.0065,-0.1940,49.27908386,-122.98361161,0.00000000,
15.3100,-0.4708,1.1509,0.0671,-1.1407,1.2605,2.3419,-0.0432,1.0065,-0.1940,49.27908386,-122.98361161,0.00000000,
15.3480,-0.8761,1.4886,-0.1617,-1.1407,1.2605,2.3419,-0.0432,1.0065,-0.1940,49.27908386,-122.98361161,0.00000000,
15.3680,-0.8761,1.4886,-0.1617,-1.1407,1.2605,2.3419,-1.7181,-0.8294,-0.0235,49.27908386,-122.98361161,0.00000000,
15.3890,-0.8761,1.4886,-0.1617,-4.5677,4.3686,1.0967,-1.7181,-0.8294,-0.0235,49.27908386,-122.98361161,0.00000000,
15.4050,-0.3516,1.3503,-0.1076,-4.5677,4.3686,1.0967,-1.7181,-0.8294,-0.0235,49.27908386,-122.98361161,0.00000000,
15.4240,-0.3516,1.3503,-0.1076,-4.5677,4.3686,1.0967,-2.7192,-2.0639,0.5188,49.27908386,-122.98361161,0.00000000,
15.4420,-0.3516,1.3503,-0.1076,-2.5846,2.9000,-3.0995,-2.7192,-2.0639,0.5188,49.27908386,-122.98361161,0.00000000,
15.4790,-0.3467,1.1608,-0.0910,-2.5846,2.9000,-3.0995,-2.7192,-2.0639,0.5188,49.27908728,-122.98357184,2.45000005,
15.4990,-0.3467,1.1608,-0.0910,-2.5846,2.9000,-3.0995,-1.9910,-1.7708,0.2172,49.27908728,-122.98357184,2.45000005,
15.5080,-0.3467,1.1608,-0.0910,-0.4994,4.9185,-3.0926,-1.9910,-1.7708,0.2172,49.27908728,-122.98357184,2.45000005,
15.5470,-0.3745,0.8406,-0.0229,-0.4994,4.9185,-3.0926,-1.9910,-1.7708,0.2172,49.27908728,-122.98357184,2.45000005,
15.5660,-0.3745,0.8406,-0.0229,-0.4994,4.9185,-3.0926,-1.5399,-2.1826,0.4703,49.27908728,-122.98357184,2.45000005,
15.5860,-0.3745,0.8406,-0.0229,-2.9836,-0.0349,-4.0499,-1.5399,-2.1826,0.4703,49.27908728,-122.98357184,2.45000005,
15.6040,0.1812,0.5379,0.0629,-2.9836,-0.0349,-4.0499,-1.5399,-2.1826,0.4703,49.27908728,-122.98357184,2.45000005,
15.6230,0.1812,0.5379,0.0629,-2.9836,-0.0349,-4.0499,-0.9164,-0.9394,0.3917,49.27908728,-122.98357184,2.45000005,
15.6420,0.1812,0.5379,0.0629,1.2909,-2.5528,-3.6940,-0.9164,-0.9394,0.3917,49.27908728,-122.98357184,2.45000005,
15.6810,0.1272,0.4169,0.0700,1.2909,-2.5528,-3.6940,-0.9164,-0.9394,0.3917,49.27908728,-122.98357184,2.45000005,
15.6990,0.1272,0.4169,0.0700,1.2909,-2.5528,-3.6940,-0.0349,0.5888,-0.4355,49.27908728,-122.98357184,2.45000005,
15.7190,0.1272,0.4169,0.0700,4.3223,-4.5303,-2.6991,-0.0349,0.5888,-0.4355,49.27908728,-122.98357184,2.45000005,
15.7390,-0.2464,0.6058,0.4320,4.3223,-4.5303,-2.6991,-0.0349,0.5888,-0.4355,49.27908728,-122.98357184,2.45000005,
15.7560,-0.2464,0.6058,0.4320,4.3223,-4.5303,-2.6991,0.6327,0.5313,-0.3626,49.27908728,-122.98357184,2.45000005,
15.7750,-0.2464,0.6058,0.4320,1.1273,-4.9557,-1.7145,0.6327,0.5313,-0.3626,49.27908728,-122.98357184,2.45000005,
15.8160,-0.4570,1.4215,1.1300,1.1273,-4.9557,-1.7145,0.6327,0.5313,-0.3626,49.27908728,-122.98357184,2.45000005,
15.8320,-0.4570,1.4215,1.1300,1.1273,-4.9557,-1.7145,0.4341,-1.4169,-0.4890,49.27908728,-122.98357184,2.45000005,
15.8500,-0.4570,1.4215,1.1300,-2.9087,3.7080,6.6619,0.4341,-1.4169,-0.4890,49.27908728,-122.98357184,2.45000005,
15.8710,0.4350,0.5011,0.2760,-2.9087,3.7080,6.6619,0.4341,-1.4169,-0.4890,49.27908728,-122.98357184,2.45000005,
15.8890,0.4350,0.5011,0.2760,-2.9087,3.7080,6.6619,0.1669,0.8341,-0.5994,49.27908728,-122.98357184,2.45000005,
15.9100,0.4350,0.5011,0.2760,4.6012,-0.6156,2.2356,0.1669,0.8341,-0.5994,49.27908728,-122.98357184,2.45000005,
15.9480,-0.8939,1.7418,0.1091,4.6012,-0.6156,2.2356,0.1669,0.8341,-0.5994,49.27908728,-122.98357184,2.45000005,
15.9660,-0.8939,1.7418,0.1091,4.6012,-0.6156,2.2356,0.4041,-0.6709,0.8567,49.27908728,-122.98357184,2.45000005,
15.9860,-0.8939,1.7418,0.1091,-3.4723,3.4132,0.8185,0.4041,-0.6709,0.8567,49.27908728,-122.98357184,2.45000005,
16.0030,0.5385,0.4274,0.0474,-3.4723,3.4132,0.8185,0.4041,-0.6709,0.8567,49.27908728,-122.98357184,2.45000005,
16.0230,0.5385,0.4274,0.0474,-3.4723,3.4132,0.8185,1.1780,2.0047,-1.1766,49.27908728,-122.98357184,2.45000005,
16.0420,0.5385,0.4274,0.0474,9.1131,-1.6620,-1.9954,1.1780,2.0047,-1.1766,49.27908728,-122.98357184,2.45000005,
16.0800,-0.8153,1.2158,-0.1909,9.1131,-1.6620,-1.9954,1.1780,2.0047,-1.1766,49.27908728,-122.98357184,2.45000005,
16.0990,-0.8153,1.2158,-0.1909,9.1131,-1.6620,-1.9954,1.2176,0.8072,0.1874,49.27908728,-122.98357184,2.45000005,
16.1180,-0.8153,1.2158,-0.1909,-8.8193,1.6911,-3.7866,1.2176,0.8072,0.1874,49.27908728,-122.98357184,2.45000005,
16.1370,-0.3034,0.7275,0.0198,-8.8193,1.6911,-3.7866,1.2176,0.8072,0.1874,49.27908728,-122.98357184,2.45000005,
16.1560,-0.3034,0.7275,0.0198,-8.8193,1.6911,-3.7866,1.7620,1.3505,-0.4336,49.27908728,-122.98357184,2.45000005,
16.1760,-0.3034,0.7275,0.0198,5.0573,-1.7718,2.8980,1.7620,1.3505,-0.4336,49.27908728,-122.98357184,2.45000005,
16.2130,-0.4216,0.8177,-0.0367,5.0573,-1.7718,2.8980,1.7620,1.3505,-0.4336,49.27908728,-122.98357184,2.45000005,
16.2320,-0.4216,0.8177,-0.0367,5.0573,-1.7718,2.8980,1.1731,0.6009,-0.0467,49.27908728,-122.98357184,2.45000005,
16.2500,-0.4216,0.8177,-0.0367,-3.0623,-1.0414,-0.5645,1.1731,0.6009,-0.0467,49.27908728,-122.98357184,2.45000005,
16.2700,-0.2905,0.9147,-0.0097,-3.0623,-1.0414,-0.5645,1.1731,0.6009,-0.0467,49.27908728,-122.98357184,2.45000005,
16.2910,-0.2905,0.9147,-0.0097,-3.0623,-1.0414,-0.5645,0.5840,0.9735,0.1066,49.27908728,-122.98357184,2.45000005,
16.3090,-0.2905,0.9147,-0.0097,0.4469,-0.4735,2.8008,0.5840,0.9735,0.1066,49.27908728,-122.98357184,2.45000005,
16.3470,-0.2876,0.9067,0.0439,0.4469,-0.4735,2.8008,0.5840,0.9735,0.1066,49.27908728,-122.98357184,2.45000005,
16.3730,-0.2876,0.9067,0.0439,0.4469,-0.4735,2.8008,0.4280,1.4208,0.2416,49.27908728,-122.98357184,2.45000005,
16.3890,-0.2876,0.9067,0.0439,0.3335,-0.2878,2.4714,0.4280,1.4208,0.2416,49.27908728,-122.98357184,2.45000005,
16.4040,-0.5775,0.8605,0.0425,0.3335,-0.2878,2.4714,0.4280,1.4208,0.2416,49.27908728,-122.98357184,2.45000005,
16.4220,-0.5775,0.8605,0.0425,0.3335,-0.2878,2.4714,0.5022,0.8590,0.1387,49.27908728,-122.98357184,2.45000005,
16.4400,-0.5775,0.8605,0.0425,-2.1894,-0.4335,3.0332,0.5022,0.8590,0.1387,49.27908999,-122.98353029,1.78999996,
16.4790,-0.5173,1.2241,0.0998,-2.1894,-0.4335,3.0332,0.5022,0.8590,0.1387,49.27908999,-122.98353029,1.78999996,
16.4980,-0.5173,1.2241,0.0998,-2.1894,-0.4335,3.0332,-0.0794,0.4274,-0.2094,49.27908999,-122.98353029,1.78999996,
16.5160,-0.5173,1.2241,0.0998,-2.0953,1.2042,3.0324,-0.0794,0.4274,-0.2094,49.27908999,-122.98353029,1.78999996,
16.5380,-0.7808,1.4599,-0.2146,-2.0953,1.2042,3.0324,-0.0794,0.4274,-0.2094,49.27908999,-122.98353029,1.78999996,
16.5550,-0.7808,1.4599,-0.2146,-2.0953,1.2042,3.0324,-2.1312,-1.3492,0.0467,49.27908999,-122.98353029,1.78999996,
16.5750,-0.7808,1.4599,-0.2146,-4.5494,4.9989,0.6893,-2.1312,-1.3492,0.0467,49.27908999,-122.98353029,1.78999996,
16.6120,-0.2611,1.4470,-0.1264,-4.5494,4.9989,0.6893,-2.1312,-1.3492,0.0467,49.27908999,-122.98353029,1.78999996,
16.6310,-0.2611,1.4470,-0.1264,-4.5494,4.9989,0.6893,-2.7070,-2.0171,0.5467,49.27908999,-122.98353029,1.78999996,
16.6500,-0.2611,1.4470,-0.1264,-2.2421,2.8936,-4.1973,-2.7070,-2.0171,0.5467,49.27908999,-122.98353029,1.78999996,
16.6700,-0.3802,1.0590,-0.0503,-2.2421,2.8936,-4.1973,-2.7070,-2.0171,0.5467,49.27908999,-122.98353029,1.78999996,
16.6880,-0.3802,1.0590,-0.0503,-2.2421,2.8936,-4.1973,-2.0062,-1.7604,0.1607,49.27908999,-122.98353029,1.78999996,
16.7080,-0.3802,1.0590,-0.0503,-0.3911,4.4736,-3.2750,-2.0062,-1.7604,0.1607,49.27908999,-122.98353029,1.78999996,
16.7460,-0.3036,0.7365,-0.0211,-0.3911,4.4736,-3.2750,-2.0062,-1.7604,0.1607,49.27908999,-122.98353029,1.78999996,
16.7650,-0.3036,0.7365,-0.0211,-0.3911,4.4736,-3.2750,-1.4030,-2.0359,0.2968,49.27908999,-122.98353029,1.78999996,
16.7870,-0.3036,0.7365,-0.0211,-2.8724,-0.6955,-3.6490,-1.4030,-2.0359,0.2968,49.27908999,-122.98353029,1.78999996,
16.8030,0.2233,0.4934,0.0459,-2.8724,-0.6955,-3.6490,-1.4030,-2.0359,0.2968,49.27908999,-122.98353029,1.78999996,
16.8220,0.2233,0.4934,0.0459,-2.8724,-0.6955,-3.6490,-0.5953,-0.8797,-0.0537,49.27908999,-122.98353029,1.78999996,
16.8400,0.2233,0.4934,0.0459,2.1854,-3.1022,-3.9820,-0.5953,-0.8797,-0.0537,49.27908999,-122.98353029,1.78999996,
16.8790,0.0451,0.3590,0.0832,2.1854,-3.1022,-3.9820,-0.5953,-0.8797,-0.0537,49.27908999,-122.98353029,1.78999996,
16.8980,0.0451,0.3590,0.0832,2.1854,-3.1022,-3.9820,0.4451,0.3672,-0.7865,49.27908999,-122.98353029,1.78999996,
16.9190,0.0451,0.3590,0.0832,3.9854,-4.9881,-2.6520,0.4451,0.3672,-0.7865,49.27908999,-122.98353029,1.78999996,
16.9370,-0.4109,0.9209,0.6859,3.9854,-4.9881,-2.6520,0.4451,0.3672,-0.7865,49.27908999,-122.98353029,1.78999996,
16.9560,-0.4109,0.9209,0.6859,3.9854,-4.9881,-2.6520,0.6961,-0.1920,-0.3401,49.27908999,-122.98353029,1.78999996,
16.9760,-0.4109,0.9209,0.6859,0.4062,-4.4172,-0.6374,0.6961,-0.1920,-0.3401,49.27908999,-122.98353029,1.78999996,
17.0130,-0.0141,1.1903,0.8068,0.4062,-4.4172,-0.6374,0.6961,-0.1920,-0.3401,49.27908999,-122.98353029,1.78999996,
17.0310,-0.0141,1.1903,0.8068,0.4062,-4.4172,-0.6374,0.0891,-0.4582,-0.4633,49.27908999,-122.98353029,1.78999996,
17.0520,-0.0141,1.1903,0.8068,-1.4487,4.8885,7.5935,0.0891,-0.4582,-0.4633,49.27908999,-122.98353029,1.78999996,
17.0700,-0.3246,0.9377,0.4415,-1.4487,4.8885,7.5935,0.0891,-0.4582,-0.4633,49.27908999,-122.98353029,1.78999996,
17.0890,-0.3246,0.9377,0.4415,-1.4487,4.8885,7.5935,0.3481,-0.3412,-0.8195,49.27908999,-122.98353029,1.78999996,
17.1080,-0.3246,0.9377,0.4415,4.5567,-2.0085,0.7679,0.3481,-0.3412,-0.8195,49.27908999,-122.98353029,1.78999996,
17.1460,0.2815,1.0553,-0.1169,4.5567,-2.0085,0.7679,0.3481,-0.3412,-0.8195,49.27908999,-122.98353029,1.78999996,
17.1640,0.2815,1.0553,-0.1169,4.5567,-2.0085,0.7679,0.4104,0.1424,0.7987,49.27908999,-122.98353029,1.78999996,
17.1840,0.2815,1.0553,-0.1169,-7.0836,5.8920,-1.2019,0.4104,0.1424,0.7987,49.27908999,-122.98353029,1.78999996,
17.2030,-0.8594,1.0531,-0.2059,-7.0836,5.8920,-1.2019,0.4104,0.1424,0.7987,49.27908999,-122.98353029,1.78999996,
17.2210,-0.8594,1.0531,-0.2059,-7.0836,5.8920,-1.2019,1.4831,1.4359,-0.8159,49.27908999,-122.98353029,1.78999996,
17.2410,-0.8594,1.0531,-0.2059,10.3330,-3.4720,-0.6303,1.4831,1.4359,-0.8159,49.27908999,-122.98353029,1.78999996,
17.2790,0.0315,0.8674,0.1393,10.3330,-3.4720,-0.6303,1.4831,1.4359,-0.8159,49.27908999,-122.98353029,1.78999996,
17.2980,0.0315,0.8674,0.1393,10.3330,-3.4720,-0.6303,1.3919,1.4167,-0.2683,49.27908999,-122.98353029,1.78999996,
17.3180,0.0315,0.8674,0.1393,-3.9969,2.1091,-2.2822,1.3919,1.4167,-0.2683,49.27908999,-122.98353029,1.78999996,
17.3370,-0.6502,0.7617,-0.1574,-3.9969,2.1091,-2.2822,1.3919,1.4167,-0.2683,49.27908999,-122.98353029,1.78999996,
17.3630,-0.6502,0.7617,-0.1574,-3.9969,2.1091,-2.2822,1.5518,1.0700,-0.2113,49.27908999,-122.98353029,1.78999996,
17.3760,-0.6502,0.7617,-0.1574,-0.4446,-1.6977,1.0876,1.5518,1.0700,-0.2113,49.27908999,-122.98353029,1.78999996,
17.4150,-0.3073,0.8764,0.0637,-0.4446,-1.6977,1.0876,1.5518,1.0700,-0.2113,49.27908999,-122.98353029,1.78999996,
17.4300,-0.3073,0.8764,0.0637,-0.4446,-1.6977,1.0876,1.0633,0.5925,-0.0858,49.27909455,-122.98351094,0.75000000,
17.4500,-0.3073,0.8764,0.0637,-0.9179,-1.2130,1.3152,1.0633,0.5925,-0.0858,49.27909455,-122.98351094,0.75000000,
17.4710,-0.2208,0.9459,0.0090,-0.9179,-1.2130,1.3152,1.0633,0.5925,-0.0858,49.27909455,-122.98351094,0.75000000,
17.4880,-0.2208,0.9459,0.0090,-0.9179,-1.2130,1.3152,0.3285,1.3856,0.1153,49.27909455,-122.98351094,0.75000000,
17.5170,-0.2208,0.9459,0.0090,0.4272,0.3038,2.2076,0.3285,1.3856,0.1153,49.27909455,-122.98351094,0.75000000,
17.5380,-0.4311,0.8111,-0.0187,0.4272,0.3038,2.2076,0.3285,1.3856,0.1153,49.27909455,-122.98351094,0.75000000,
17.5550,-0.4311,0.8111,-0.0187,0.4272,0.3038,2.2076,0.2969,1.4758,0.2734,49.27909455,-122.98351094,0.75000000,
17.5750,-0.4311,0.8111,-0.0187,-0.2345,-0.6780,2.5574,0.2969,1.4758,0.2734,49.27909455,-122.98351094,0.75000000,
17.6120,-0.5326,0.8874,-0.0512,-0.2345,-0.6780,2.5574,0.2969,1.4758,0.2734,49.27909455,-122.98351094,0.75000000,
17.6310,-0.5326,0.8874,-0.0512,-0.2345,-0.6780,2.5574,0.5100,0.8520,0.1549,49.27909455,-122.98351094,0.75000000,
17.6490,-0.5326,0.8874,-0.0512,-2.6040,-0.9194,2.5667,0.5100,0.8520,0.1549,49.27909455,-122.98351094,0.75000000,
17.6680,-0.6631,1.2276,0.0758,-2.6040,-0.9194,2.5667,0.5100,0.8520,0.1549,49.27909455,-122.98351094,0.75000000,
17.6880,-0.6631,1.2276,0.0758,-2.6040,-0.9194,2.5667,-0.1218,0.5173,-0.1502,49.27909455,-122.98351094,0.75000000,
17.7070,-0.6631,1.2276,0.0758,-2.3619,1.7494,2.6101,-0.1218,0.5173,-0.1502,49.27909455,-122.98351094,0.75000000,
17.7460,-0.6825,1.4607,-0.1986,-2.3619,1.7494,2.6101,-0.1218,0.5173,-0.1502,49.27909455,-122.98351094,0.75000000,
17.7650,-0.6825,1.4607,-0.1986,-2.3619,1.7494,2.6101,-1.8980,-1.3921,0.0036,49.27909455,-122.98351094,0.75000000,
17.7890,-0.6825,1.4607,-0.1986,-5.5042,5.1422,0.0828,-1.8980,-1.3921,0.0036,49.27909455,-122.98351094,0.75000000,
17.8020,-0.2086,1.3767,-0.1079,-5.5042,5.1422,0.0828,-1.8980,-1.3921,0.0036,49.27909455,-122.98351094,0.75000000,
17.8210,-0.2086,1.3767,-0.1079,-5.5042,5.1422,0.0828,-2.4691,-1.9223,0.3778,49.27909455,-122.98351094,0.75000000,
17.8400,-0.2086,1.3767,-0.1079,-0.5962,2.7019,-2.8375,-2.4691,-1.9223,0.3778,49.27909455,-122.98351094,0.75000000,
17.8790,-0.3818,1.0629,-0.1528,-0.5962,2.7019,-2.8375,-2.4691,-1.9223,0.3778,49.27909455,-122.98351094,0.75000000,
17.8980,-0.3818,1.0629,-0.1528,-0.5962,2.7019,-2.8375,-1.7914,-2.1752,0.1767,49.27909455,-122.98351094,0.75000000,
17.9170,-0.3818,1.0629,-0.1528,-0.0694,3.4046,-3.2352,-1.7914,-2.1752,0.1767,49.27909455,-122.98351094,0.75000000,
17.9360,-0.2326,0.7427,0.0066,-0.0694,3.4046,-3.2352,-1.7914,-2.1752,0.1767,49.27909455,-122.98351094,0.75000000,
17.9550,-0.2326,0.7427,0.0066,-0.0694,3.4046,-3.2352,-1.5332,-1.8680,0.4874,49.27909455,-122.98351094,0.75000000,
17.9730,-0.2326,0.7427,0.0066,-2.4517,-0.6513,-3.8942,-1.5332,-1.8680,0.4874,49.27909455,-122.98351094,0.75000000,
18.0120,0.1917,0.5380,0.0886,-2.4517,-0.6513,-3.8942,-1.5332,-1.8680,0.4874,49.27909455,-122.98351094,0.75000000,
18.0310,0.1917,0.5380,0.0886,-2.4517,-0.6513,-3.8942,-0.8384,-0.6257,0.1043,49.27909455,-122.98351094,0.75000000,
18.0500,0.1917,0.5380,0.0886,2.3399,-2.9981,-3.3492,-0.8384,-0.6257,0.1043,49.27909455,-122.98351094,0.75000000,
18.0690,0.0192,0.4778,0.0981,2.3399,-2.9981,-3.3492,-0.8384,-0.6257,0.1043,49.27909455,-122.98351094,0.75000000,
18.0880,0.0192,0.4778,0.0981,2.3399,-2.9981,-3.3492,-0.0162,0.4522,-0.8530,49.27909455,-122.98351094,0.75000000,
18.1080,0.0192,0.4778,0.0981,3.9416,-3.8385,-2.5346,-0.0162,0.4522,-0.8530,49.27909455,-122.98351094,0.75000000,
18.1460,-0.4691,0.7748,0.7217,3.9416,-3.8385,-2.5346,-0.0162,0.4522,-0.8530,49.27909455,-122.98351094,0.75000000,
18.1650,-0.4691,0.7748,0.7217,3.9416,-3.8385,-2.5346,0.7376,-0.1856,-0.6692,49.27909455,-122.98351094,0.75000000,
18.1830,-0.4691,0.7748,0.7217,0.2888,-4.0111,0.0741,0.7376,-0.1856,-0.6692,49.27909455,-122.98351094,0.75000000,
18.2010,-0.1415,1.0092,0.8469,0.2888,-4.0111,0.0741,0.7376,-0.1856,-0.6692,49.27909455,-122.98351094,0.75000000,
18.2210,-0.1415,1.0092,0.8469,0.2888,-4.0111,0.0741,0.4776,-0.8634,-0.2902,49.27909455,-122.98351094,0.75000000,
18.2400,-0.1415,1.0092,0.8469,-2.9261,1.7975,6.9370,0.4776,-0.8634,-0.2902,49.27909455,-122.98351094,0.75000000,
18.2790,-0.3819,1.5369,0.3299,-2.9261,1.7975,6.9370,0.4776,-0.8634,-0.2902,49.27909455,-122.98351094,0.75000000,
18.2980,-0.3819,1.5369,0.3299,-2.9261,1.7975,6.9370,-0.0294,-0.5866,-0.0442,49.27909455,-122.98351094,0.75000000,
18.3160,-0.3819,1.5369,0.3299,4.5389,1.0737,1.6464,-0.0294,-0.5866,-0.0442,49.27909455,-122.98351094,0.75000000,
18.3410,0.5666,0.5712,-0.0559,4.5389,1.0737,1.6464,-0.0294,-0.5866,-0.0442,49.27909455,-122.98351094,0.75000000,
18.3550,0.5666,0.5712,-0.0559,4.5389,1.0737,1.6464,0.3873,1.3029,-0.1263,49.27909455,-122.98351094,0.75000000,
18.3740,0.5666,0.5712,-0.0559,-1.1152,4.1419,-2.9604,0.3873,1.3029,-0.1263,49.27909455,-122.98351094,0.75000000,
18.4110,-1.1634,1.1991,-0.3615,-1.1152,4.1419,-2.9604,0.3873,1.3029,-0.1263,49.27909455,-122.98351094,0.75000000,
18.4300,-1.1634,1.1991,-0.3615,-1.1152,4.1419,-2.9604,1.5122,0.6974,-0.2858,49.27909455,-122.98351094,0.75000000,
18.4500,-1.1634,1.1991,-0.3615,2.0363,-1.3894,-1.0497,1.5122,0.6974,-0.2858,49.27909455,-122.98351094,0.75000000,
18.4700,0.3658,0.8421,0.1887,2.0363,-1.3894,-1.0497,1.5122,0.6974,-0.2858,49.27909455,-122.98351094,0.75000000,
18.4880,0.3658,0.8421,0.1887,2.0363,-1.3894,-1.0497,1.3536,1.8991,-0.2560,49.27909455,-122.98351094,0.75000000,
18.5160,0.3658,0.8421,0.1887,0.8038,0.5684,-1.4480,1.3536,1.8991,-0.2560,49.27909455,-122.98351094,0.75000000,
18.5360,-0.8041,0.8280,-0.2170,0.8038,0.5684,-1.4480,1.3536,1.8991,-0.2560,49.27909455,-122.98351094,0.75000000,
18.5550,-0.8041,0.8280,-0.2170,0.8038,0.5684,-1.4480,1.2302,1.5558,-0.0669,49.27909455,-122.98351094,0.75000000,
18.5730,-0.8041,0.8280,-0.2170,-1.1035,-0.5679,-0.0698,1.2302,1.5558,-0.0669,49.27909455,-122.98351094,0.75000000,
18.6120,-0.3789,0.8166,0.1022,-1.1035,-0.5679,-0.0698,1.2302,1.5558,-0.0669,49.27909455,-122.98351094,0.75000000,
18.6300,-0.3789,0.8166,0.1022,-1.1035,-0.5679,-0.0698,1.2209,0.5422,-0.0120,49.27909455,-122.98351094,0.75000000,
18.6490,-0.3789,0.8166,0.1022,-2.2951,-1.5995,1.9542,1.2209,0.5422,-0.0120,49.27909455,-122.98351094,0.75000000,
18.6690,-0.2436,0.9546,0.0948,-2.2951,-1.5995,1.9542,1.2209,0.5422,-0.0120,49.27909455,-122.98351094,0.75000000,
18.6880,-0.2436,0.9546,0.0948,-2.2951,-1.5995,1.9542,0.4460,1.0430,0.2252,49.27909455,-122.98351094,0.75000000,
18.7060,-0.2436,0.9546,0.0948,0.2707,-0.2746,2.8134,0.4460,1.0430,0.2252,49.27909455,-122.98351094,0.75000000,
18.7460,-0.4231,0.8318,0.0833,0.2707,-0.2746,2.8134,0.4460,1.0430,0.2252,49.27909455,-122.98351094,0.75000000,
18.7630,-0.4231,0.8318,0.0833,0.2707,-0.2746,2.8134,0.3845,1.0430,0.3366,49.27909455,-122.98351094,0.75000000,
18.7820,-0.4231,0.8318,0.0833,-0.3543,-0.2162,3.2284,0.3845,1.0430,0.3366,49.27909455,-122.98351094,0.75000000,
18.8010,-0.5585,0.8833,0.0139,-0.3543,-0.2162,3.2284,0.3845,1.0430,0.3366,49.27909455,-122.98351094,0.75000000,
18.8210,-0.5585,0.8833,0.0139,-0.3543,-0.2162,3.2284,0.7587,0.3066,-0.0191,49.27909455,-122.98351094,0.75000000,
18.8430,-0.5585,0.8833,0.0139,-3.3605,-1.0493,3.3413,0.7587,0.3066,-0.0191,49.27909455,-122.98351094,0.75000000,
18.8780,-0.4655,1.3144,0.0714,-3.3605,-1.0493,3.3413,0.7587,0.3066,-0.0191,49.27909455,-122.98351094,0.75000000,
18.8980,-0.4655,1.3144,0.0714,-3.3605,-1.0493,3.3413,-0.4757,0.4309,-0.1010,49.27909455,-122.98351094,0.75000000,
18.9160,-0.4655,1.3144,0.0714,-1.1046,1.7135,3.0404,-0.4757,0.4309,-0.1010,49.27909455,-122.98351094,0.75000000,
18.9360,-0.6371,1.3269,-0.3001,-1.1046,1.7135,3.0404,-0.4757,0.4309,-0.1010,49.27909455,-122.98351094,0.75000000,
18.9540,-0.6371,1.3269,-0.3001,-1.1046,1.7135,3.0404,-2.3696,-1.7387,0.0249,49.27909455,-122.98351094,0.75000000,
18.9730,-0.6371,1.3269,-0.3001,-3.4311,5.0705,-1.5816,-2.3696,-1.7387,0.0249,49.27909455,-122.98351094,0.75000000,
19.0110,-0.2994,1.4963,0.0105,-3.4311,5.0705,-1.5816,-2.3696,-1.7387,0.0249,49.27909455,-122.98351094,0.75000000,
19.0290,-0.2994,1.4963,0.0105,-3.4311,5.0705,-1.5816,-2.4164,-1.4671,0.5835,49.27909455,-122.98351094,0.75000000,
19.0500,-0.2994,1.4963,0.0105,-1.9109,2.9180,-3.0519,-2.4164,-1.4671,0.5835,49.27909455,-122.98351094,0.75000000,
19.0680,-0.3714,1.0133,-0.1868,-1.9109,2.9180,-3.0519,-2.4164,-1.4671,0.5835,49.27909455,-122.98351094,0.75000000,
19.0890,-0.3714,1.0133,-0.1868,-1.9109,2.9180,-3.0519,-1.8509,-1.9928,0.0001,49.27909455,-122.98351094,0.75000000,
19.1060,-0.3714,1.0133,-0.1868,-0.2357,3.8643,-3.7156,-1.8509,-1.9928,0.0001,49.27909455,-122.98351094,0.75000000,
19.1440,-0.1351,0.7204,-0.0084,-0.2357,3.8643,-3.7156,-1.8509,-1.9928,0.0001,49.27909455,-122.98351094,0.75000000,
19.1630,-0.1351,0.7204,-0.0084,-0.2357,3.8643,-3.7156,-1.2894,-2.0250,0.3280,49.27909455,-122.98351094,0.75000000,
19.1820,-0.1351,0.7204,-0.0084,-2.0946,-1.0346,-3.9804,-1.2894,-2.0250,0.3280,49.27909455,-122.98351094,0.75000000,
19.2010,0.2230,0.4912,0.1237,-2.0946,-1.0346,-3.9804,-1.2894,-2.0250,0.3280,49.27909455,-122.98351094,0.75000000,
19.2210,0.2230,0.4912,0.1237,-2.0946,-1.0346,-3.9804,-0.3719,-0.6645,-0.1593,49.27909455,-122.98351094,0.75000000,
19.2400,0.2230,0.4912,0.1237,3.5513,-3.3203,-3.1494,-0.3719,-0.6645,-0.1593,49.27909455,-122.98351094,0.75000000,
19.2780,-0.0050,0.4757,0.1245,3.5513,-3.3203,-3.1494,-0.3719,-0.6645,-0.1593,49.27909455,-122.98351094,0.75000000,
19.2970,-0.0050,0.4757,0.1245,3.5513,-3.3203,-3.1494,0.3557,0.6478,-0.6111,49.27909455,-122.98351094,0.75000000,
19.3170,-0.0050,0.4757,0.1245,3.4771,-4.2752,-2.1042,0.3557,0.6478,-0.6111,49.27909455,-122.98351094,0.75000000,
19.3400,-0.4089,0.9962,0.7487,3.4771,-4.2752,-2.1042,0.3557,0.6478,-0.6111,49.27909455,-122.98351094,0.75000000,
19.3650,-0.4089,0.9962,0.7487,3.4771,-4.2752,-2.1042,0.4175,-0.0119,-0.3753,49.27909455,-122.98351094,0.75000000,
19.3740,-0.4089,0.9962,0.7487,0.1910,-2.6272,0.5289,0.4175,-0.0119,-0.3753,49.27909455,-122.98351094,0.75000000,
19.4130,-0.1966,1.1266,0.8186,0.1910,-2.6272,0.5289,0.4175,-0.0119,-0.3753,49.27909455,-122.98351094,0.75000000,
19.4290,-0.1966,1.1266,0.8186,0.1910,-2.6272,0.5289,-0.0062,-0.4062,-0.3750,49.27909455,-122.98351094,0.75000000,
19.4490,-0.1966,1.1266,0.8186,-2.1061,3.9170,7.3665,-0.0062,-0.4062,-0.3750,49.27909927,-122.98347696,1.13999999,
19.4680,-0.4197,0.9333,0.3685,-2.1061,3.9170,7.3665,-0.0062,-0.4062,-0.3750,49.27909927,-122.98347696,1.13999999,
19.4870,-0.4197,0.9333,0.3685,-2.1061,3.9170,7.3665,0.3639,-0.5830,-0.6816,49.27909927,-122.98347696,1.13999999,
19.5180,-0.4197,0.9333,0.3685,3.8220,-2.3758,1.3340,0.3639,-0.5830,-0.6816,49.27909927,-122.98347696,1.13999999,
19.5350,0.5043,0.9924,-0.0843,3.8220,-2.3758,1.3340,0.3639,-0.5830,-0.6816,49.27909927,-122.98347696,1.13999999,
19.5530,0.5043,0.9924,-0.0843,3.8220,-2.3758,1.3340,0.3893,0.5143,0.6130,49.27909927,-122.98347696,1.13999999,
19.5730,0.5043,0.9924,-0.0843,-5.7723,5.5552,-2.9678,0.3893,0.5143,0.6130,49.27909927,-122.98347696,1.13999999,
19.6110,-0.9884,1.0190,-0.2443,-5.7723,5.5552,-2.9678,0.3893,0.5143,0.6130,49.27909927,-122.98347696,1.13999999,
19.6300,-0.9884,1.0190,-0.2443,-5.7723,5.5552,-2.9678,1.3707,1.3908,-0.7370,49.27909927,-122.98347696,1.13999999,
19.6490,-0.9884,1.0190,-0.2443,10.4000,-3.8822,-0.5523,1.3707,1.3908,-0.7370,49.27909927,-122.98347696,1.13999999,
19.6680,0.0681,0.8363,0.1630,10.4000,-3.8822,-0.5523,1.3707,1.3908,-0.7370,49.27909927,-122.98347696,1.13999999,
19.6860,0.0681,0.8363,0.1630,10.4000,-3.8822,-0.5523,1.2096,0.9370,-0.0867,49.27909927,-122.98347696,1.13999999,
19.7060,0.0681,0.8363,0.1630,-5.6148,2.1278,-2.7247,1.2096,0.9370,-0.0867,49.27909927,-122.98347696,1.13999999,
19.7430,-0.5838,0.9025,-0.1009,-5.6148,2.1278,-2.7247,1.2096,0.9370,-0.0867,49.27909927,-122.98347696,1.13999999,
19.7620,-0.5838,0.9025,-0.1009,-5.6148,2.1278,-2.7247,1.5089,1.0056,-0.3999,49.27909927,-122.98347696,1.13999999,
19.7820,-0.5838,0.9025,-0.1009,1.2057,-1.2299,2.0107,1.5089,1.0056,-0.3999,49.27909927,-122.98347696,1.13999999,
19.8000,-0.3052,0.8230,0.0625,1.2057,-1.2299,2.0107,1.5089,1.0056,-0.3999,49.27909927,-122.98347696,1.13999999,
19.8190,-0.3052,0.8230,0.0625,1.2057,-1.2299,2.0107,1.1713,0.8168,-0.1179,49.27909927,-122.98347696,1.13999999,
19.8410,-0.3052,0.8230,0.0625,-0.8475,-0.7288,1.0408,1.1713,0.8168,-0.1179,49.27909927,-122.98347696,1.13999999,
19.8780,-0.3406,0.8814,-0.0016,-0.8475,-0.7288,1.0408,1.1713,0.8168,-0.1179,49.27909927,-122.98347696,1.13999999,
19.8960,-0.3406,0.8814,-0.0016,-0.8475,-0.7288,1.0408,0.6128,1.2285,0.1217,49.27909927,-122.98347696,1.13999999,
19.9160,-0.3406,0.8814,-0.0016,0.0676,-0.6713,2.1941,0.6128,1.2285,0.1217,49.27909927,-122.98347696,1.13999999,
19.9340,-0.3184,0.8605,-0.0593,0.0676,-0.6713,2.1941,0.6128,1.2285,0.1217,49.27909927,-122.98347696,1.13999999,
19.9530,-0.3184,0.8605,-0.0593,0.0676,-0.6713,2.1941,0.2880,1.3310,0.3244,49.27909927,-122.98347696,1.13999999,
19.9730,-0.3184,0.8605,-0.0593,0.0243,-0.0764,2.2085,0.2880,1.3310,0.3244,49.27909927,-122.98347696,1.13999999,
20.0110,-0.5473,0.8800,-0.0529,0.0243,-0.0764,2.2085,0.2880,1.3310,0.3244,49.27909927,-122.98347696,1.13999999,
20.0300,-0.5473,0.8800,-0.0529,0.0243,-0.0764,2.2085,0.7320,0.8890,0.0753,49.27909927,-122.98347696,1.13999999,
20.0470,-0.5473,0.8800,-0.0529,-2.4644,-0.7609,2.2822,0.7320,0.8890,0.0753,49.27909927,-122.98347696,1.13999999,
20.0670,-0.3810,1.2139,0.0356,-2.4644,-0.7609,2.2822,0.7320,0.8890,0.0753,49.27909927,-122.98347696,1.13999999,
20.0910,-0.3810,1.2139,0.0356,-2.4644,-0.7609,2.2822,0.0222,1.1318,-0.1134,49.27909927,-122.98347696,1.13999999,
20.1050,-0.3810,1.2139,0.0356,-0.9675,1.6508,3.1451,0.0222,1.1318,-0.1134,49.27909927,-122.98347696,1.13999999,
20.1440,-0.8025,1.4025,-0.1031,-0.9675,1.6508,3.1451,0.0222,1.1318,-0.1134,49.27909927,-122.98347696,1.13999999,
20.1620,-0.8025,1.4025,-0.1031,-0.9675,1.6508,3.1451,-1.6346,-0.2707,-0.0022,49.27909927,-122.98347696,1.13999999,
20.1810,-0.8025,1.4025,-0.1031,-3.1787,4.2340,1.2744,-1.6346,-0.2707,-0.0022,49.27909927,-122.98347696,1.13999999,
20.2010,-0.4016,1.1881,-0.1654,-3.1787,4.2340,1.2744,-1.6346,-0.2707,-0.0022,49.27909927,-122.98347696,1.13999999,
20.2200,-0.4016,1.1881,-0.1654,-3.1787,4.2340,1.2744,-2.8169,-1.9220,0.3137,49.27909927,-122.98347696,1.13999999,
20.2390,-0.4016,1.1881,-0.1654,-3.7349,1.9254,-2.5748,-2.8169,-1.9220,0.3137,49.27909927,-122.98347696,1.13999999,
20.2760,-0.1684,1.2608,-0.0585,-3.7349,1.9254,-2.5748,-2.8169,-1.9220,0.3137,49.27909927,-122.98347696,1.13999999,
20.2970,-0.1684,1.2608,-0.0585,-3.7349,1.9254,-2.5748,-2.0657,-1.1905,0.1168,49.27909927,-122.98347696,1.13999999,
20.3150,-0.1684,1.2608,-0.0585,0.5686,4.6030,-2.3174,-2.0657,-1.1905,0.1168,49.27909927,-122.98347696,1.13999999,
20.3370,-0.5225,0.8613,-0.0202,0.5686,4.6030,-2.3174,-2.0657,-1.1905,0.1168,49.27909927,-122.98347696,1.13999999,
20.3520,-0.5225,0.8613,-0.0202,0.5686,4.6030,-2.3174,-1.5217,-2.3166,0.1268,49.27909927,-122.98347696,1.13999999,
20.3720,-0.5225,0.8613,-0.0202,-2.3458,-0.2634,-4.1253,-1.5217,-2.3166,0.1268,49.27909927,-122.98347696,1.13999999,
20.4090,0.0369,0.6200,0.0512,-2.3458,-0.2634,-4.1253,-1.5217,-2.3166,0.1268,49.27909927,-122.98347696,1.13999999,
20.4280,0.0369,0.6200,0.0512,-2.3458,-0.2634,-4.1253,-0.9222,-1.6237,0.0985,49.27909927,-122.98347696,1.13999999,
20.4470,0.0369,0.6200,0.0512,-0.5447,-1.6374,-3.3373,-0.9222,-1.6237,0.0985,49.27909927,-122.98347696,1.13999999,
20.4660,0.1814,0.4857,0.0965,-0.5447,-1.6374,-3.3373,-0.9222,-1.6237,0.0985,49.27909927,-122.98347696,1.13999999,
20.4850,0.1814,0.4857,0.0965,-0.5447,-1.6374,-3.3373,0.0596,-0.2009,-0.6281,49.27909927,-122.98347696,1.13999999,
20.5150,0.1814,0.4857,0.0965,4.4260,-4.1150,-2.1603,0.0596,-0.2009,-0.6281,49.27909927,-122.98347696,1.13999999,
20.5320,-0.1945,0.5693,0.2699,4.4260,-4.1150,-2.1603,0.0596,-0.2009,-0.6281,49.27909927,-122.98347696,1.13999999,
20.5510,-0.1945,0.5693,0.2699,4.4260,-4.1150,-2.1603,0.5366,0.3991,-0.5359,49.27909927,-122.98347696,1.13999999,
20.5710,-0.1945,0.5693,0.2699,1.9454,-4.0892,-2.0142,0.5366,0.3991,-0.5359,49.27909927,-122.98347696,1.13999999,
20.6080,-0.4152,1.2840,1.0701,1.9454,-4.0892,-2.0142,0.5366,0.3991,-0.5359,49.27909927,-122.98347696,1.13999999,
20.6290,-0.4152,1.2840,1.0701,1.9454,-4.0892,-2.0142,0.2304,-0.6816,-0.3535,49.27909927,-122.98347696,1.13999999,
20.6470,-0.4152,1.2840,1.0701,-1.0699,0.8128,4.3074,0.2304,-0.6816,-0.3535,49.27909927,-122.98347696,1.13999999,
20.6660,0.1698,0.7957,0.4957,-1.0699,0.8128,4.3074,0.2304,-0.6816,-0.3535,49.27909927,-122.98347696,1.13999999,
20.6860,0.1698,0.7957,0.4957,-1.0699,0.8128,4.3074,-0.2337,0.3031,-0.2081,49.27909927,-122.98347696,1.13999999,
20.7050,0.1698,0.7957,0.4957,1.5705,2.5613,4.7199,-0.2337,0.3031,-0.2081,49.27909927,-122.98347696,1.13999999,
20.7430,-0.8210,1.4716,0.2230,1.5705,2.5613,4.7199,-0.2337,0.3031,-0.2081,49.27909927,-122.98347696,1.13999999,
20.7620,-0.8210,1.4716,0.2230,1.5705,2.5613,4.7199,0.3102,-0.8636,0.5064,49.27909927,-122.98347696,1.13999999,
20.7810,-0.8210,1.4716,0.2230,-1.3167,1.2775,0.4747,0.3102,-0.8636,0.5064,49.27909927,-122.98347696,1.13999999,
20.8000,0.5587,0.5640,-0.0017,-1.3167,1.2775,0.4747,0.3102,-0.8636,0.5064,49.27909927,-122.98347696,1.13999999,
20.8190,0.5587,0.5640,-0.0017,-1.3167,1.2775,0.4747,1.0581,1.6032,-1.2195,49.27909927,-122.98347696,1.13999999,
20.8400,0.5587,0.5640,-0.0017,7.0543,-0.6405,-1.5253,1.0581,1.6032,-1.2195,49.27909927,-122.98347696,1.13999999,
20.8760,-0.6495,1.2201,-0.2843,7.0543,-0.6405,-1.5253,1.0581,1.6032,-1.2195,49.27909927,-122.98347696,1.13999999,
20.8960,-0.6495,1.2201,-0.2843,7.0543,-0.6405,-1.5253,1.0959,0.9367,0.3828,49.27909927,-122.98347696,1.13999999,
20.9150,-0.6495,1.2201,-0.2843,-6.0427,1.9742,-4.1664,1.0959,0.9367,0.3828,49.27909927,-122.98347696,1.13999999,
20.9320,-0.2419,0.8334,0.0708,-6.0427,1.9742,-4.1664,1.0959,0.9367,0.3828,49.27909927,-122.98347696,1.13999999,
20.9510,-0.2419,0.8334,0.0708,-6.0427,1.9742,-4.1664,1.4680,1.9540,-0.6066,49.27909927,-122.98347696,1.13999999,
20.9710,-0.2419,0.8334,0.0708,6.0158,-0.6358,1.8208,1.4680,1.9540,-0.6066,49.27909927,-122.98347696,1.13999999,
21.0090,-0.6333,0.7143,-0.0359,6.0158,-0.6358,1.8208,1.4680,1.9540,-0.6066,49.27909927,-122.98347696,1.13999999,
21.0290,-0.6333,0.7143,-0.0359,6.0158,-0.6358,1.8208,1.2820,0.9981,-0.0146,49.27909927,-122.98347696,1.13999999,
21.0480,-0.6333,0.7143,-0.0359,-4.1648,-1.1094,-0.0441,1.2820,0.9981,-0.0146,49.27909927,-122.98347696,1.13999999,
21.0660,-0.3980,0.8250,0.0635,-4.1648,-1.1094,-0.0441,1.2820,0.9981,-0.0146,49.27909927,-122.98347696,1.13999999,
21.0890,-0.3980,0.8250,0.0635,-4.1648,-1.1094,-0.0441,1.2150,0.6533,0.0149,49.27909927,-122.98347696,1.13999999,
21.1040,-0.3980,0.8250,0.0635,-1.2046,-1.4484,2.7777,1.2150,0.6533,0.0149,49.27909927,-122.98347696,1.13999999,
21.1430,-0.2097,0.9449,-0.0367,-1.2046,-1.4484,2.7777,1.2150,0.6533,0.0149,49.27909927,-122.98347696,1.13999999,
21.1620,-0.2097,0.9449,-0.0367,-1.2046,-1.4484,2.7777,0.6303,0.9800,0.2657,49.27909927,-122.98347696,1.13999999,
21.1800,-0.2097,0.9449,-0.0367,0.2134,0.0162,2.5374,0.6303,0.9800,0.2657,49.27909927,-122.98347696,1.13999999,
21.1990,-0.4330,0.8942,0.0629,0.2134,0.0162,2.5374,0.6303,0.9800,0.2657,49.27909927,-122.98347696,1.13999999,
21.2190,-0.4330,0.8942,0.0629,0.2134,0.0162,2.5374,0.3030,1.3252,0.1076,49.27909927,-122.98347696,1.13999999,
21.2380,-0.4330,0.8942,0.0629,-0.0582,0.1450,2.9377,0.3030,1.3252,0.1076,49.27909927,-122.98347696,1.13999999,
21.2760,-0.4343,1.0193,-0.0071,-0.0582,0.1450,2.9377,0.3030,1.3252,0.1076,49.27909927,-122.98347696,1.13999999,
21.2960,-0.4343,1.0193,-0.0071,-0.0582,0.1450,2.9377,0.2083,0.8779,-0.0608,49.27909927,-122.98347696,1.13999999,
21.3140,-0.4343,1.0193,-0.0071,-1.7795,0.0512,3.2352,0.2083,0.8779,-0.0608,49.27909927,-122.98347696,1.13999999,
21.3320,-0.7571,1.4425,-0.1147,-1.7795,0.0512,3.2352,0.2083,0.8779,-0.0608,49.27909927,-122.98347696,1.13999999,
21.3600,-0.7571,1.4425,-0.1147,-1.7795,0.0512,3.2352,-0.9864,-0.1849,-0.2989,49.27909927,-122.98347696,1.13999999,
21.3700,-0.7571,1.4425,-0.1147,-2.4748,3.2817,1.7385,-0.9864,-0.1849,-0.2989,49.27909927,-122.98347696,1.13999999,
21.4100,-0.5307,1.2624,-0.2076,-2.4748,3.2817,1.7385,-0.9864,-0.1849,-0.2989,49.27909927,-122.98347696,1.13999999,
21.4270,-0.5307,1.2624,-0.2076,-2.4748,3.2817,1.7385,-2.7342,-2.3808,0.1854,49.27909927,-122.98347696,1.13999999,
21.4470,-0.5307,1.2624,-0.2076,-4.4443,4.1406,-2.6204,-2.7342,-2.3808,0.1854,49.27909830,-122.98345888,1.09000003,
21.4660,-0.4225,1.2991,-0.1030,-4.4443,4.1406,-2.6204,-2.7342,-2.3808,0.1854,49.27909830,-122.98345888,1.09000003,
21.4850,-0.4225,1.2991,-0.1030,-4.4443,4.1406,-2.6204,-2.1181,-1.9167,0.4813,49.27909830,-122.98345888,1.09000003,
21.5140,-0.4225,1.2991,-0.1030,-1.0823,3.7172,-3.0628,-2.1181,-1.9167,0.4813,49.27909830,-122.98345888,1.09000003,
21.5320,-0.3788,0.8567,0.0257,-1.0823,3.7172,-3.0628,-2.1181,-1.9167,0.4813,49.27909830,-122.98345888,1.09000003,
21.5510,-0.3788,0.8567,0.0257,-1.0823,3.7172,-3.0628,-1.6250,-2.2023,0.5219,49.27909830,-122.98345888,1.09000003,
21.5710,-0.3788,0.8567,0.0257,-2.5735,0.4995,-3.3090,-1.6250,-2.2023,0.5219,49.27909830,-122.98345888,1.09000003,
21.6090,0.0734,0.6903,0.0001,-2.5735,0.4995,-3.3090,-1.6250,-2.2023,0.5219,49.27909830,-122.98345888,1.09000003,
21.6270,0.0734,0.6903,0.0001,-2.5735,0.4995,-3.3090,-1.1252,-1.1697,0.4233,49.27909830,-122.98345888,1.09000003,
21.6460,0.0734,0.6903,0.0001,0.4705,-1.6039,-3.7163,-1.1252,-1.1697,0.4233,49.27909830,-122.98345888,1.09000003,
21.6660,0.1361,0.5069,0.0252,0.4705,-1.6039,-3.7163,-1.1252,-1.1697,0.4233,49.27909830,-122.98345888,1.09000003,
21.6840,0.1361,0.5069,0.0252,0.4705,-1.6039,-3.7163,-0.2968,0.1260,-0.4788,49.27909830,-122.98345888,1.09000003,
21.7050,0.1361,0.5069,0.0252,4.1173,-3.2207,-3.3516,-0.2968,0.1260,-0.4788,49.27909830,-122.98345888,1.09000003,
21.7420,-0.2000,0.4379,0.2860,4.1173,-3.2207,-3.3516,-0.2968,0.1260,-0.4788,49.27909830,-122.98345888,1.09000003,
21.7610,-0.2000,0.4379,0.2860,4.1173,-3.2207,-3.3516,0.4112,0.7997,-0.4712,49.27909830,-122.98345888,1.09000003,
21.7790,-0.2000,0.4379,0.2860,1.5407,-4.6720,-2.0422,0.4112,0.7997,-0.4712,49.27909830,-122.98345888,1.09000003,
21.7980,-0.4572,1.1856,1.0157,1.5407,-4.6720,-2.0422,0.4112,0.7997,-0.4712,49.27909830,-122.98345888,1.09000003,
21.8180,-0.4572,1.1856,1.0157,1.5407,-4.6720,-2.0422,0.7434,-0.9947,-0.2097,49.27909830,-122.98345888,1.09000003,
21.8410,-0.4572,1.1856,1.0157,-1.4067,-1.0157,4.7299,0.7434,-0.9947,-0.2097,49.27909830,-122.98345888,1.09000003,
21.8770,0.2888,0.8881,0.4112,-1.4067,-1.0157,4.7299,0.7434,-0.9947,-0.2097,49.27909830,-122.98345888,1.09000003,
21.8960,0.2888,0.8881,0.4112,-1.4067,-1.0157,4.7299,-0.3597,0.8959,-0.3839,49.27909830,-122.98345888,1.09000003,
21.9140,0.2888,0.8881,0.4112,1.8918,2.7124,3.7286,-0.3597,0.8959,-0.3839,49.27909830,-122.98345888,1.09000003,
21.9320,-0.9296,1.5080,0.4191,1.8918,2.7124,3.7286,-0.3597,0.8959,-0.3839,49.27909830,-122.98345888,1.09000003,
21.9530,-0.9296,1.5080,0.4191,1.8918,2.7124,3.7286,0.5167,-1.0628,0.4139,49.27909830,-122.98345888,1.09000003,
21.9700,-0.9296,1.5080,0.4191,0.0109,3.3973,2.0883,0.5167,-1.0628,0.4139,49.27909830,-122.98345888,1.09000003,
22.0090,0.6694,0.5590,-0.0477,0.0109,3.3973,2.0883,0.5167,-1.0628,0.4139,49.27909830,-122.98345888,1.09000003,
22.0280,0.6694,0.5590,-0.0477,0.0109,3.3973,2.0883,0.9261,1.6736,-0.9410,49.27909830,-122.98345888,1.09000003,
22.0470,0.6694,0.5590,-0.0477,5.2171,-2.4241,-3.5537,0.9261,1.6736,-0.9410,49.27909830,-122.98345888,1.09000003,
22.0660,-0.9316,1.1346,-0.3429,5.2171,-2.4241,-3.5537,0.9261,1.6736,-0.9410,49.27909830,-122.98345888,1.09000003,
22.0900,-0.9316,1.1346,-0.3429,5.2171,-2.4241,-3.5537,1.1975,0.6231,0.2031,49.27909830,-122.98345888,1.09000003,
22.1040,-0.9316,1.1346,-0.3429,-6.9680,1.9486,-2.8786,1.1975,0.6231,0.2031,49.27909830,-122.98345888,1.09000003,
22.1420,-0.0666,0.8228,0.1273,-6.9680,1.9486,-2.8786,1.1975,0.6231,0.2031,49.27909830,-122.98345888,1.09000003,
22.1610,-0.0666,0.8228,0.1273,-6.9680,1.9486,-2.8786,1.4021,1.7565,-0.6546,49.27909830,-122.98345888,1.09000003,
22.1800,-0.0666,0.8228,0.1273,6.0683,-0.7999,1.9191,1.4021,1.7565,-0.6546,49.27909830,-122.98345888,1.09000003,
22.1990,-0.6249,0.8029,-0.1108,6.0683,-0.7999,1.9191,1.4021,1.7565,-0.6546,49.27909830,-122.98345888,1.09000003,
22.2180,-0.6249,0.8029,-0.1108,6.0683,-0.7999,1.9191,1.0413,0.9149,-0.1029,49.27909830,-122.98345888,1.09000003,
22.2370,-0.6249,0.8029,-0.1108,-3.2953,-0.5666,-0.6743,1.0413,0.9149,-0.1029,49.27909830,-122.98345888,1.09000003,
22.2760,-0.3731,0.8593,0.1038,-3.2953,-0.5666,-0.6743,1.0413,0.9149,-0.1029,49.27909830,-122.98345888,1.09000003,
22.2930,-0.3731,0.8593,0.1038,-3.2953,-0.5666,-0.6743,0.9790,0.6529,-0.0783,49.27909830,-122.98345888,1.09000003,
22.3130,-0.3731,0.8593,0.1038,-0.6977,-1.2804,2.6286,0.9790,0.6529,-0.0783,49.27909830,-122.98345888,1.09000003,
22.3320,-0.1831,0.9343,0.0141,-0.6977,-1.2804,2.6286,0.9790,0.6529,-0.0783,49.27909830,-122.98345888,1.09000003,
22.3510,-0.1831,0.9343,0.0141,-0.6977,-1.2804,2.6286,0.2772,1.5114,0.1680,49.27909830,-122.98345888,1.09000003,
22.3700,-0.1831,0.9343,0.0141,0.3889,0.4279,2.9448,0.2772,1.5114,0.1680,49.27909830,-122.98345888,1.09000003,
22.4080,-0.5159,0.8016,-0.0223,0.3889,0.4279,2.9448,0.2772,1.5114,0.1680,49.27909830,-122.98345888,1.09000003,
22.4270,-0.5159,0.8016,-0.0223,0.3889,0.4279,2.9448,0.6666,1.1077,0.2919,49.27909830,-122.98345888,1.09000003,
22.4460,-0.5159,0.8016,-0.0223,-0.1793,-0.9782,2.0690,0.6666,1.1077,0.2919,49.27909830,-122.98345888,1.09000003,
22.4650,-0.3527,1.0519,-0.0826,-0.1793,-0.9782,2.0690,0.6666,1.1077,0.2919,49.27909830,-122.98345888,1.09000003,
22.4850,-0.3527,1.0519,-0.0826,-0.1793,-0.9782,2.0690,0.6839,0.7126,-0.1484,49.27909830,-122.98345888,1.09000003,
22.5120,-0.3527,1.0519,-0.0826,-2.4812,0.1609,3.0699,0.6839,0.7126,-0.1484,49.27909830,-122.98345888,1.09000003,
22.5320,-0.6144,1.3820,0.0053,-2.4812,0.1609,3.0699,0.6839,0.7126,-0.1484,49.27909830,-122.98345888,1.09000003,
22.5510,-0.6144,1.3820,0.0053,-2.4812,0.1609,3.0699,-0.6716,0.7168,-0.1265,49.27909830,-122.98345888,1.09000003,
22.5700,-0.6144,1.3820,0.0053,-0.2316,3.0336,2.4500,-0.6716,0.7168,-0.1265,49.27909830,-122.98345888,1.09000003,
22.6100,-0.7362,1.2819,-0.2262,-0.2316,3.0336,2.4500,-0.6716,0.7168,-0.1265,49.27909830,-122.98345888,1.09000003,
22.6270,-0.7362,1.2819,-0.2262,-0.2316,3.0336,2.4500,-2.5087,-1.4605,0.2198,49.27909830,-122.98345888,1.09000003,
22.6460,-0.7362,1.2819,-0.2262,-6.3137,4.6781,-1.5897,-2.5087,-1.4605,0.2198,49.27909830,-122.98345888,1.09000003,
22.6650,-0.3041,1.3051,-0.1940,-6.3137,4.6781,-1.5897,-2.5087,-1.4605,0.2198,49.27909830,-122.98345888,1.09000003,
22.6840,-0.3041,1.3051,-0.1940,-6.3137,4.6781,-1.5897,-2.4619,-2.0405,0.6265,49.27909830,-122.98345888,1.09000003,
22.7030,-0.3041,1.3051,-0.1940,-1.0273,2.8760,-3.6254,-2.4619,-2.0405,0.6265,49.27909830,-122.98345888,1.09000003,
22.7420,-0.4549,0.9765,0.0270,-1.0273,2.8760,-3.6254,-2.4619,-2.0405,0.6265,49.27909830,-122.98345888,1.09000003,
22.7610,-0.4549,0.9765,0.0270,-1.0273,2.8760,-3.6254,-1.9249,-1.9764,0.5841,49.27909830,-122.98345888,1.09000003,
22.7790,-0.4549,0.9765,0.0270,-2.0806,1.3528,-2.9247,-1.9249,-1.9764,0.5841,49.27909830,-122.98345888,1.09000003,
22.7990,-0.0332,0.7076,0.0783,-2.0806,1.3528,-2.9247,-1.9249,-1.9764,0.5841,49.27909830,-122.98345888,1.09000003,
22.8180,-0.0332,0.7076,0.0783,-2.0806,1.3528,-2.9247,-1.3699,-1.1525,0.4167,49.27909830,-122.98345888,1.09000003,
22.8400,-0.0332,0.7076,0.0783,-1.1379,-0.7138,-3.0895,-1.3699,-1.1525,0.4167,49.27909830,-122.98345888,1.09000003,
22.8760,0.1178,0.3965,0.0224,-1.1379,-0.7138,-3.0895,-1.3699,-1.1525,0.4167,49.27909830,-122.98345888,1.09000003,
22.8940,0.1178,0.3965,0.0224,-1.1379,-0.7138,-3.0895,-0.4234,-0.0754,-0.4958,49.27909830,-122.98345888,1.09000003,
22.9130,0.1178,0.3965,0.0224,3.5382,-4.2046,-2.5476,-0.4234,-0.0754,-0.4958,49.27909830,-122.98345888,1.09000003,
22.9320,-0.2045,0.4539,0.1223,3.5382,-4.2046,-2.5476,-0.4234,-0.0754,-0.4958,49.27909830,-122.98345888,1.09000003,
22.9500,-0.2045,0.4539,0.1223,3.5382,-4.2046,-2.5476,0.4570,0.0937,-0.9061,49.27909830,-122.98345888,1.09000003,
22.9700,-0.2045,0.4539,0.1223,1.8635,-5.0307,-3.0581,0.4570,0.0937,-0.9061,49.27909830,-122.98345888,1.09000003,
23.0090,-0.4980,1.0345,0.9987,1.8635,-5.0307,-3.0581,0.4570,0.0937,-0.9061,49.27909830,-122.98345888,1.09000003,
23.0270,-0.4980,1.0345,0.9987,1.8635,-5.0307,-3.0581,0.8022,-1.0528,-0.2708,49.27909830,-122.98345888,1.09000003,
23.0470,-0.4980,1.0345,0.9987,-1.7840,-1.6759,3.4085,0.8022,-1.0528,-0.2708,49.27909830,-122.98345888,1.09000003,
23.0650,0.1975,0.9682,0.5080,-1.7840,-1.6759,3.4085,0.8022,-1.0528,-0.2708,49.27909830,-122.98345888,1.09000003,
23.0900,0.1975,0.9682,0.5080,-1.7840,-1.6759,3.4085,-0.1954,0.1942,-0.4055,49.27909830,-122.98345888,1.09000003,
23.1040,0.1975,0.9682,0.5080,1.4551,2.3616,5.3154,-0.1954,0.1942,-0.4055,49.27909830,-122.98345888,1.09000003,
23.1410,-0.9922,1.6347,0.3918,1.4551,2.3616,5.3154,-0.1954,0.1942,-0.4055,49.27909830,-122.98345888,1.09000003,
23.1610,-0.9922,1.6347,0.3918,1.4551,2.3616,5.3154,0.2364,-1.3047,0.5884,49.27909830,-122.98345888,1.09000003,
23.1790,-0.9922,1.6347,0.3918,-0.6295,2.7147,0.7142,0.2364,-1.3047,0.5884,49.27909830,-122.98345888,1.09000003,
23.1990,0.9647,0.3480,-0.1086,-0.6295,2.7147,0.7142,0.2364,-1.3047,0.5884,49.27909830,-122.98345888,1.09000003,
23.2170,0.9647,0.3480,-0.1086,-0.6295,2.7147,0.7142,0.8238,1.9523,-0.9398,49.27909830,-122.98345888,1.09000003,
23.2370,0.9647,0.3480,-0.1086,5.4744,-1.5186,-3.6794,0.8238,1.9523,-0.9398,49.27909830,-122.98345888,1.09000003,
23.2760,-1.0623,1.3162,-0.4103,5.4744,-1.5186,-3.6794,0.8238,1.9523,-0.9398,49.27909830,-122.98345888,1.09000003,
23.2930,-1.0623,1.3162,-0.4103,5.4744,-1.5186,-3.6794,1.2846,0.5093,0.1626,49.27909830,-122.98345888,1.09000003,
23.3120,-1.0623,1.3162,-0.4103,-6.7768,3.0570,-3.1634,1.2846,0.5093,0.1626,49.27909830,-122.98345888,1.09000003,
23.3300,-0.1450,0.8211,0.1237,-6.7768,3.0570,-3.1634,1.2846,0.5093,0.1626,49.27909830,-122.98345888,1.09000003,
23.3500,-0.1450,0.8211,0.1237,-6.7768,3.0570,-3.1634,1.6808,1.2358,-0.6553,49.27909830,-122.98345888,1.09000003,
23.3690,-0.1450,0.8211,0.1237,4.9234,-1.1691,1.6503,1.6808,1.2358,-0.6553,49.27909830,-122.98345888,1.09000003,
23.4070,-0.4362,0.7991,-0.0324,4.9234,-1.1691,1.6503,1.6808,1.2358,-0.6553,49.27909830,-122.98345888,1.09000003,
23.4260,-0.4362,0.7991,-0.0324,4.9234,-1.1691,1.6503,1.1420,1.0294,-0.0184,49.27909830,-122.98345888,1.09000003,
23.4450,-0.4362,0.7991,-0.0324,-2.6542,-0.8749,-0.0112,1.1420,1.0294,-0.0184,49.27909105,-122.98342616,1.17999995,
23.4640,-0.3367,0.8650,0.0770,-2.6542,-0.8749,-0.0112,1.1420,1.0294,-0.0184,49.27909105,-122.98342616,1.17999995,
23.4820,-0.3367,0.8650,0.0770,-2.6542,-0.8749,-0.0112,0.9924,1.1063,0.0462,49.27909105,-122.98342616,1.17999995,
23.5110,-0.3367,0.8650,0.0770,0.3782,-0.9068,3.2003,0.9924,1.1063,0.0462,49.27909105,-122.98342616,1.17999995,
23.5300,-0.3443,0.8828,0.0540,0.3782,-0.9068,3.2003,0.9924,1.1063,0.0462,49.27909105,-122.98342616,1.17999995,
23.5490,-0.3443,0.8828,0.0540,0.3782,-0.9068,3.2003,0.4947,1.0868,0.3221,49.27909105,-122.98342616,1.17999995,
23.5680,-0.3443,0.8828,0.0540,-1.0928,-0.4163,2.5797,0.4947,1.0868,0.3221,49.27909105,-122.98342616,1.17999995,
23.6060,-0.5005,0.8175,-0.0729,-1.0928,-0.4163,2.5797,0.4947,1.0868,0.3221,49.27909105,-122.98342616,1.17999995,
23.6250,-0.5005,0.8175,-0.0729,-1.0928,-0.4163,2.5797,0.4177,0.8253,0.3219,49.27909105,-122.98342616,1.17999995,
23.6460,-0.5005,0.8175,-0.0729,-1.4993,-0.8396,2.7010,0.4177,0.8253,0.3219,49.27909105,-122.98342616,1.17999995,
23.6650,-0.4588,1.0094,0.0005,-1.4993,-0.8396,2.7010,0.4177,0.8253,0.3219,49.27909105,-122.98342616,1.17999995,
23.6830,-0.4588,1.0094,0.0005,-1.4993,-0.8396,2.7010,0.7039,0.7175,-0.0743,49.27909105,-122.98342616,1.17999995,
23.7020,-0.4588,1.0094,0.0005,-2.1787,-0.0369,2.2482,0.7039,0.7175,-0.0743,49.27909105,-122.98342616,1.17999995,
