time,gFx,gFy,gFz,ax,ay,az,wx,wy,wz,p,Bx,By,Bz,Azimuth,Pitch,Roll,Latitude,Longitude,Speed (m/s)
0.018,0.3474,0.3908,0.7094,-0.3674,0.2314,0.788,-0.212,-0.0032,0.0405,851.519,18.24,-24.72,-35.4,-109.978,-26.325,-26.092,49.17435793,-121.6785905,0
0.02,0.3474,0.3908,0.7094,-0.3674,0.2314,0.788,-0.212,-0.0032,0.0405,851.519,18.24,-24.6,-35.4,-109.807,-26.325,-26.092,49.17435793,-121.6785905,0
0.021,0.3474,0.3908,0.7094,-0.3674,0.2314,0.788,0.0128,0.0021,0.0138,851.519,18.24,-24.6,-35.4,-109.807,-26.325,-26.092,49.17435793,-121.6785905,0
0.046,0.3474,0.3908,0.7094,0.305,0.031,-1.5408,0.0128,0.0021,0.0138,851.519,18.24,-24.6,-35.4,-109.807,-26.325,-26.092,49.17435793,-121.6785905,0
0.066,0.3332,0.382,0.9161,0.305,0.031,-1.5408,0.0128,0.0021,0.0138,851.519,18.24,-24.6,-35.4,-114.034,-21.4,-19.989,49.17435793,-121.6785905,0
0.068,0.3332,0.382,0.9161,0.305,0.031,-1.5408,0.0128,0.0021,0.0138,851.519,18.24,-24.54,-35.46,-113.894,-21.4,-19.989,49.17435793,-121.6785905,0
0.07,0.3332,0.382,0.9161,0.305,0.031,-1.5408,-0.4346,0.3398,0.179,851.519,18.24,-24.54,-35.46,-113.894,-21.4,-19.989,49.17435793,-121.6785905,0
0.088,0.3332,0.382,0.9161,0.305,0.031,-1.5408,-0.4346,0.3398,0.179,851.4783,18.24,-24.54,-35.46,-113.894,-21.4,-19.989,49.17435793,-121.6785905,0
0.089,0.3332,0.382,0.9161,0.305,0.031,-1.5408,-0.4346,0.3398,0.179,851.4783,18.24,-24.54,-35.46,-113.894,-21.4,-19.989,49.17435793,-121.6785905,0
0.106,0.3332,0.382,0.9161,0.2553,0.1165,0.3783,-0.4346,0.3398,0.179,851.4783,18.24,-24.54,-35.46,-113.894,-21.4,-19.989,49.17435793,-121.6785905,0
0.126,0.3039,0.3566,0.9009,0.2553,0.1165,0.3783,-0.4346,0.3398,0.179,851.4783,18.24,-24.54,-35.46,-114.803,-20.56,-18.641,49.17435793,-121.6785905,0
0.127,0.3039,0.3566,0.9009,0.2553,0.1165,0.3783,-0.4346,0.3398,0.179,851.4783,18.3,-24.48,-35.46,-114.678,-20.56,-18.641,49.17435793,-121.6785905,0
0.13,0.3039,0.3566,0.9009,0.2553,0.1165,0.3783,0.065,-0.0607,0.0213,851.4783,18.3,-24.48,-35.46,-114.678,-20.56,-18.641,49.17435793,-121.6785905,0
0.169,0.3039,0.3566,0.9009,-0.0779,-0.2063,0.2776,0.065,-0.0607,0.0213,851.4783,18.3,-24.48,-35.46,-114.678,-20.56,-18.641,49.17435793,-121.6785905,0
0.186,0.2814,0.3703,0.8198,-0.0779,-0.2063,0.2776,0.065,-0.0607,0.0213,851.4783,18.3,-24.48,-35.46,-112.043,-23.133,-18.947,49.17435793,-121.6785905,0
0.188,0.2814,0.3703,0.8198,-0.0779,-0.2063,0.2776,0.065,-0.0607,0.0213,851.4783,18.3,-24.36,-35.52,-111.802,-23.133,-18.947,49.17435793,-121.6785905,0
0.19,0.2814,0.3703,0.8198,-0.0779,-0.2063,0.2776,0.0138,0.1502,0.0309,851.4783,18.3,-24.36,-35.52,-111.802,-23.133,-18.947,49.17435793,-121.6785905,0
0.226,0.2814,0.3703,0.8198,-0.2086,-0.0519,-0.5575,0.0138,0.1502,0.0309,851.4783,18.3,-24.36,-35.52,-111.802,-23.133,-18.947,49.17435793,-121.6785905,0
0.247,0.2595,0.3322,0.8755,-0.2086,-0.0519,-0.5575,0.0138,0.1502,0.0309,851.4783,18.3,-24.36,-35.52,-115.237,-19.991,-16.507,49.17435793,-121.6785905,0
0.248,0.2595,0.3322,0.8755,-0.2086,-0.0519,-0.5575,0.0138,0.1502,0.0309,851.4783,18.3,-24.3,-35.52,-115.141,-19.991,-16.507,49.17435793,-121.6785905,0
0.256,0.2595,0.3322,0.8755,-0.2086,-0.0519,-0.5575,0.0085,0.131,0.0469,851.4783,18.3,-24.3,-35.52,-115.141,-19.991,-16.507,49.17435793,-121.6785905,0
0.265,0.2595,0.3322,0.8755,-0.2086,-0.0519,-0.5575,0.0085,0.131,0.0469,851.3918,18.3,-24.3,-35.52,-115.141,-19.991,-16.507,49.17435793,-121.6785905,0
0.267,0.2595,0.3322,0.8755,-0.2086,-0.0519,-0.5575,0.0085,0.131,0.0469,851.3918,18.3,-24.3,-35.52,-115.141,-19.991,-16.507,49.17435793,-121.6785905,0
0.285,0.2595,0.3322,0.8755,-0.3642,-0.4206,-0.0341,0.0085,0.131,0.0469,851.3918,18.3,-24.3,-35.52,-115.141,-19.991,-16.507,49.17435793,-121.6785905,0
0.306,0.258,0.3581,0.8316,-0.3642,-0.4206,-0.0341,0.0085,0.131,0.0469,851.3918,18.3,-24.3,-35.52,-112.557,-22.357,-17.236,49.17435793,-121.6785905,0
0.308,0.258,0.3581,0.8316,-0.3642,-0.4206,-0.0341,0.0085,0.131,0.0469,851.3918,18.3,-24.18,-35.52,-112.363,-22.357,-17.236,49.17435793,-121.6785905,0
0.31,0.258,0.3581,0.8316,-0.3642,-0.4206,-0.0341,0.017,0.0288,0.0618,851.3918,18.3,-24.18,-35.52,-112.363,-22.357,-17.236,49.17435793,-121.6785905,0
0.346,0.258,0.3581,0.8316,-0.3132,-0.1283,-0.5031,0.017,0.0288,0.0618,851.3918,18.3,-24.18,-35.52,-112.363,-22.357,-17.236,49.17435793,-121.6785905,0
0.367,0.2599,0.3674,0.8565,-0.3132,-0.1283,-0.5031,0.017,0.0288,0.0618,851.3918,18.3,-24.18,-35.52,-112.421,-22.316,-16.883,49.17435793,-121.6785905,0
0.374,0.2599,0.3674,0.8565,-0.3132,-0.1283,-0.5031,0.017,0.0288,0.0618,851.3918,18.3,-24.06,-35.52,-112.225,-22.316,-16.883,49.17435793,-121.6785905,0
0.377,0.2599,0.3674,0.8565,-0.3132,-0.1283,-0.5031,-0.0916,0.0309,0.1981,851.3918,18.3,-24.06,-35.52,-112.225,-22.316,-16.883,49.17435793,-121.6785905,0
0.405,0.2599,0.3674,0.8565,-0.3188,0.0531,-0.2883,-0.0916,0.0309,0.1981,851.3918,18.3,-24.06,-35.52,-112.225,-22.316,-16.883,49.17435793,-121.6785905,0
0.426,0.2956,0.3596,0.8511,-0.3188,0.0531,-0.2883,-0.0916,0.0309,0.1981,851.3918,18.3,-24.06,-35.52,-112.748,-21.756,-19.153,49.17435793,-121.6785905,0
0.428,0.2956,0.3596,0.8511,-0.3188,0.0531,-0.2883,-0.0916,0.0309,0.1981,851.3918,18.36,-23.94,-35.58,-112.484,-21.756,-19.153,49.17435793,-121.6785905,0
0.429,0.2956,0.3596,0.8511,-0.3188,0.0531,-0.2883,-0.0874,0.0863,0.1555,851.3918,18.36,-23.94,-35.58,-112.484,-21.756,-19.153,49.17435793,-121.6785905,0
0.449,0.2956,0.3596,0.8511,-0.3188,0.0531,-0.2883,-0.0874,0.0863,0.1555,851.4146,18.36,-23.94,-35.58,-112.484,-21.756,-19.153,49.17435793,-121.6785905,0
0.451,0.2956,0.3596,0.8511,-0.3188,0.0531,-0.2883,-0.0874,0.0863,0.1555,851.4146,18.36,-23.94,-35.58,-112.484,-21.756,-19.153,49.17435793,-121.6785905,0
0.467,0.2956,0.3596,0.8511,0.1124,0.0769,-0.4077,-0.0874,0.0863,0.1555,851.4146,18.36,-23.94,-35.58,-112.484,-21.756,-19.153,49.17440526,-121.6786791,0
0.487,0.2805,0.3596,0.879,0.1124,0.0769,-0.4077,-0.0874,0.0863,0.1555,851.4146,18.36,-23.94,-35.58,-113.015,-21.292,-17.697,49.17440526,-121.6786791,0
0.49,0.2805,0.3596,0.879,0.1124,0.0769,-0.4077,-0.0874,0.0863,0.1555,851.4146,18.36,-23.76,-35.58,-112.727,-21.292,-17.697,49.17440526,-121.6786791,0
0.491,0.2805,0.3596,0.879,0.1124,0.0769,-0.4077,-0.2471,0.3345,0.1939,851.4146,18.36,-23.76,-35.58,-112.727,-21.292,-17.697,49.17440526,-121.6786791,0
0.526,0.2805,0.3596,0.879,0.0799,0.2063,-0.2205,-0.2471,0.3345,0.1939,851.4146,18.36,-23.76,-35.58,-112.727,-21.292,-17.697,49.17440526,-121.6786791,0
0.547,0.258,0.2838,0.8794,0.0799,0.2063,-0.2205,-0.2471,0.3345,0.1939,851.4146,18.36,-23.76,-35.58,-117.076,-17.207,-16.349,49.17440526,-121.6786791,0
0.551,0.258,0.2838,0.8794,0.0799,0.2063,-0.2205,-0.2471,0.3345,0.1939,851.4146,18.36,-23.58,-35.58,-116.792,-17.207,-16.349,49.17440526,-121.6786791,0
0.555,0.258,0.2838,0.8794,0.0799,0.2063,-0.2205,-0.2471,0.2333,0.2162,851.4146,18.36,-23.58,-35.58,-116.792,-17.207,-16.349,49.17440526,-121.6786791,0
0.59,0.258,0.2838,0.8794,0.0312,-0.4008,-0.315,-0.2471,0.2333,0.2162,851.4146,18.36,-23.58,-35.58,-116.792,-17.207,-16.349,49.17440526,-121.6786791,0
0.607,0.2458,0.3298,0.9185,0.0312,-0.4008,-0.315,-0.2471,0.2333,0.2162,851.4146,18.36,-23.58,-35.58,-115.022,-19.127,-14.98,49.17440526,-121.6786791,0
0.609,0.2458,0.3298,0.9185,0.0312,-0.4008,-0.315,-0.2471,0.2333,0.2162,851.4146,18.42,-23.34,-35.64,-114.541,-19.127,-14.98,49.17440526,-121.6786791,0
0.611,0.2458,0.3298,0.9185,0.0312,-0.4008,-0.315,-0.1907,0.4432,0.1811,851.4146,18.42,-23.34,-35.64,-114.541,-19.127,-14.98,49.17440526,-121.6786791,0
0.627,0.2458,0.3298,0.9185,0.0312,-0.4008,-0.315,-0.1907,0.4432,0.1811,851.4299,18.42,-23.34,-35.64,-114.541,-19.127,-14.98,49.17440526,-121.6786791,0
0.629,0.2458,0.3298,0.9185,0.0312,-0.4008,-0.315,-0.1907,0.4432,0.1811,851.4299,18.42,-23.34,-35.64,-114.541,-19.127,-14.98,49.17440526,-121.6786791,0
0.645,0.2458,0.3298,0.9185,0.1419,0.2224,-0.0525,-0.1907,0.4432,0.1811,851.4299,18.42,-23.34,-35.64,-114.541,-19.127,-14.98,49.17440526,-121.6786791,0
0.67,0.2414,0.2946,0.8301,0.1419,0.2224,-0.0525,-0.1907,0.4432,0.1811,851.4299,18.42,-23.34,-35.64,-114.702,-18.817,-16.213,49.17440526,-121.6786791,0
0.673,0.2414,0.2946,0.8301,0.1419,0.2224,-0.0525,-0.1907,0.4432,0.1811,851.4299,18.48,-23.1,-35.64,-114.276,-18.817,-16.213,49.17440526,-121.6786791,0
0.676,0.2414,0.2946,0.8301,0.1419,0.2224,-0.0525,-0.0863,0.538,0.0703,851.4299,18.48,-23.1,-35.64,-114.276,-18.817,-16.213,49.17440526,-121.6786791,0
0.709,0.2414,0.2946,0.8301,0.1895,-0.0272,-0.9725,-0.0863,0.538,0.0703,851.4299,18.48,-23.1,-35.64,-114.276,-18.817,-16.213,49.17440526,-121.6786791,0
0.727,0.2375,0.2486,0.8643,0.1895,-0.0272,-0.9725,-0.0863,0.538,0.0703,851.4299,18.48,-23.1,-35.64,-117.813,-15.504,-15.363,49.17440526,-121.6786791,0
0.73,0.2375,0.2486,0.8643,0.1895,-0.0272,-0.9725,-0.0863,0.538,0.0703,851.4299,18.6,-22.8,-35.7,-117.212,-15.504,-15.363,49.17440526,-121.6786791,0
0.734,0.2375,0.2486,0.8643,0.1895,-0.0272,-0.9725,-0.4953,0.5582,-0.0714,851.4299,18.6,-22.8,-35.7,-117.212,-15.504,-15.363,49.17440526,-121.6786791,0
0.769,0.2375,0.2486,0.8643,0.6428,-0.1283,-0.8441,-0.4953,0.5582,-0.0714,851.4299,18.6,-22.8,-35.7,-117.212,-15.504,-15.363,49.17440526,-121.6786791,0
0.788,0.1529,0.2882,1.0837,0.6428,-0.1283,-0.8441,-0.4953,0.5582,-0.0714,851.4299,18.6,-22.8,-35.7,-120.355,-14.754,-8.033,49.17440526,-121.6786791,0
0.791,0.1529,0.2882,1.0837,0.6428,-0.1283,-0.8441,-0.4953,0.5582,-0.0714,851.4299,18.84,-22.5,-35.7,-119.59,-14.754,-8.033,49.17440526,-121.6786791,0
0.794,0.1529,0.2882,1.0837,0.6428,-0.1283,-0.8441,-0.1353,0.3302,-0.0341,851.4299,18.84,-22.5,-35.7,-119.59,-14.754,-8.033,49.17440526,-121.6786791,0
0.806,0.1529,0.2882,1.0837,0.6428,-0.1283,-0.8441,-0.1353,0.3302,-0.0341,851.4094,18.84,-22.5,-35.7,-119.59,-14.754,-8.033,49.17440526,-121.6786791,0
0.809,0.1529,0.2882,1.0837,0.6428,-0.1283,-0.8441,-0.1353,0.3302,-0.0341,851.4094,18.84,-22.5,-35.7,-119.59,-14.754,-8.033,49.17440526,-121.6786791,0
0.826,0.1529,0.2882,1.0837,0.1046,0.2169,1.2699,-0.1353,0.3302,-0.0341,851.4094,18.84,-22.5,-35.7,-119.59,-14.754,-8.033,49.17440526,-121.6786791,0
0.85,0.28,0.214,0.6899,0.1046,0.2169,1.2699,-0.1353,0.3302,-0.0341,851.4094,18.84,-22.5,-35.7,-115.068,-16.033,-22.089,49.17440526,-121.6786791,0
0.857,0.28,0.214,0.6899,0.1046,0.2169,1.2699,-0.1353,0.3302,-0.0341,851.4094,19.14,-22.08,-35.82,-114.227,-16.033,-22.089,49.17440526,-121.6786791,0
0.864,0.28,0.214,0.6899,0.1046,0.2169,1.2699,0.5444,0.2024,-0.0266,851.4094,19.14,-22.08,-35.82,-114.227,-16.033,-22.089,49.17440526,-121.6786791,0
0.89,0.28,0.214,0.6899,1.6163,-0.4133,-2.6521,0.5444,0.2024,-0.0266,851.4094,19.14,-22.08,-35.82,-114.227,-16.033,-22.089,49.17440526,-121.6786791,0
0.916,0.0601,0.2355,1.0246,1.6163,-0.4133,-2.6521,0.5444,0.2024,-0.0266,851.4094,19.14,-22.08,-35.82,-123.01,-12.921,-3.357,49.17440526,-121.6786791,0
0.92,0.0601,0.2355,1.0246,1.6163,-0.4133,-2.6521,0.5444,0.2024,-0.0266,851.4094,19.5,-21.78,-35.88,-121.996,-12.921,-3.357,49.17440526,-121.6786791,0
0.925,0.0601,0.2355,1.0246,1.6163,-0.4133,-2.6521,-0.4645,0.9555,0.2152,851.4094,19.5,-21.78,-35.88,-121.996,-12.921,-3.357,49.17440526,-121.6786791,0
0.946,0.0601,0.2355,1.0246,0.0209,-0.0481,0.5381,-0.4645,0.9555,0.2152,851.4094,19.5,-21.78,-35.88,-121.996,-12.921,-3.357,49.17440526,-121.6786791,0
0.966,0.0283,0.2423,0.9855,0.0209,-0.0481,0.5381,-0.4645,0.9555,0.2152,851.4094,19.5,-21.78,-35.88,-121.8,-13.807,-1.647,49.17440526,-121.6786791,0
0.968,0.0283,0.2423,0.9855,0.0209,-0.0481,0.5381,-0.4645,0.9555,0.2152,851.4094,20.04,-21.42,-36,-120.381,-13.807,-1.647,49.17440526,-121.6786791,0
0.97,0.0283,0.2423,0.9855,0.0209,-0.0481,0.5381,0.131,1.1739,-0.033,851.4094,20.04,-21.42,-36,-120.381,-13.807,-1.647,49.17440526,-121.6786791,0
0.988,0.0283,0.2423,0.9855,0.0209,-0.0481,0.5381,0.131,1.1739,-0.033,851.625,20.04,-21.42,-36,-120.381,-13.807,-1.647,49.17440526,-121.6786791,0
0.991,0.0283,0.2423,0.9855,0.0209,-0.0481,0.5381,0.131,1.1739,-0.033,851.625,20.04,-21.42,-36,-120.381,-13.807,-1.647,49.17440526,-121.6786791,0
1.009,0.0283,0.2423,0.9855,0.2982,-0.03,0.1503,0.131,1.1739,-0.033,851.625,20.04,-21.42,-36,-120.381,-13.807,-1.647,49.17440526,-121.6786791,0
1.029,-0.0616,0.2799,0.8697,0.2982,-0.03,0.1503,0.131,1.1739,-0.033,851.625,20.04,-21.42,-36,-117.246,-17.8,4.049,49.17440526,-121.6786791,0
1.032,-0.0616,0.2799,0.8697,0.2982,-0.03,0.1503,0.131,1.1739,-0.033,851.625,20.7,-21.06,-36.06,-115.436,-17.8,4.049,49.17440526,-121.6786791,0
1.034,-0.0616,0.2799,0.8697,0.2982,-0.03,0.1503,0.7265,0.9087,0.0948,851.625,20.7,-21.06,-36.06,-115.436,-17.8,4.049,49.17440526,-121.6786791,0
1.069,-0.0616,0.2799,0.8697,-0.4293,-0.2859,-0.8027,0.7265,0.9087,0.0948,851.625,20.7,-21.06,-36.06,-115.436,-17.8,4.049,49.17440526,-121.6786791,0
1.09,-0.0347,0.3566,1.0475,-0.4293,-0.2859,-0.8027,0.7265,0.9087,0.0948,851.625,20.7,-21.06,-36.06,-112.581,-18.791,1.897,49.17440526,-121.6786791,0
1.093,-0.0347,0.3566,1.0475,-0.4293,-0.2859,-0.8027,0.7265,0.9087,0.0948,851.625,21.54,-20.7,-36.12,-110.836,-18.791,1.897,49.17440526,-121.6786791,0
1.096,-0.0347,0.3566,1.0475,-0.4293,-0.2859,-0.8027,0.5007,-0.3036,0.5827,851.625,21.54,-20.7,-36.12,-110.836,-18.791,1.897,49.17440526,-121.6786791,0
1.129,-0.0347,0.3566,1.0475,-0.0938,0.1207,1.0612,0.5007,-0.3036,0.5827,851.625,21.54,-20.7,-36.12,-110.836,-18.791,1.897,49.17440526,-121.6786791,0
1.147,-0.002,0.384,0.8961,-0.0938,0.1207,1.0612,0.5007,-0.3036,0.5827,851.625,21.54,-20.7,-36.12,-102.559,-23.197,0.125,49.17440526,-121.6786791,0
1.151,-0.002,0.384,0.8961,-0.0938,0.1207,1.0612,0.5007,-0.3036,0.5827,851.625,22.5,-20.34,-36.18,-101.166,-23.197,0.125,49.17440526,-121.6786791,0
1.154,-0.002,0.384,0.8961,-0.0938,0.1207,1.0612,0.7744,0.0884,0.897,851.625,22.5,-20.34,-36.18,-101.166,-23.197,0.125,49.17440526,-121.6786791,0
1.167,-0.002,0.384,0.8961,-0.0938,0.1207,1.0612,0.7744,0.0884,0.897,851.6584,22.5,-20.34,-36.18,-101.166,-23.197,0.125,49.17440526,-121.6786791,0
1.17,-0.002,0.384,0.8961,-0.0938,0.1207,1.0612,0.7744,0.0884,0.897,851.6584,22.5,-20.34,-36.18,-101.166,-23.197,0.125,49.17440526,-121.6786791,0
1.186,-0.002,0.384,0.8961,-0.0642,0.0023,-0.2754,0.7744,0.0884,0.897,851.6584,22.5,-20.34,-36.18,-101.166,-23.197,0.125,49.17440526,-121.6786791,0
1.208,0.0191,0.3776,0.9454,-0.0642,0.0023,-0.2754,0.7744,0.0884,0.897,851.6584,22.5,-20.34,-36.18,-103.654,-21.77,-1.155,49.17440526,-121.6786791,0
1.211,0.0191,0.3776,0.9454,-0.0642,0.0023,-0.2754,0.7744,0.0884,0.897,851.6584,23.46,-20.1,-36.18,-102.646,-21.77,-1.155,49.17440526,-121.6786791,0
1.214,0.0191,0.3776,0.9454,-0.0642,0.0023,-0.2754,0.4005,-0.408,1.9153,851.6584,23.46,-20.1,-36.18,-102.646,-21.77,-1.155,49.17440526,-121.6786791,0
1.248,0.0191,0.3776,0.9454,-0.5851,-0.3291,0.358,0.4005,-0.408,1.9153,851.6584,23.46,-20.1,-36.18,-102.646,-21.77,-1.155,49.17440526,-121.6786791,0
1.271,0.0938,0.3679,0.7592,-0.5851,-0.3291,0.358,0.4005,-0.408,1.9153,851.6584,23.46,-20.1,-36.18,-97.807,-25.681,-7.044,49.17440526,-121.6786791,0
1.277,0.0938,0.3679,0.7592,-0.5851,-0.3291,0.358,0.4005,-0.408,1.9153,851.6584,24.42,-19.92,-36.12,-97.385,-25.681,-7.044,49.17440526,-121.6786791,0
1.287,0.0938,0.3679,0.7592,-0.5851,-0.3291,0.358,-0.5582,0.2045,1.0227,851.6584,24.42,-19.92,-36.12,-97.385,-25.681,-7.044,49.17440526,-121.6786791,0
1.304,0.0938,0.3679,0.7592,0.0878,0.1865,-1.7132,-0.5582,0.2045,1.0227,851.6584,24.42,-19.92,-36.12,-97.385,-25.681,-7.044,49.17440526,-121.6786791,0
1.324,0.3176,0.3991,0.9693,0.0878,0.1865,-1.7132,-0.5582,0.2045,1.0227,851.6584,24.42,-19.92,-36.12,-104.35,-21.37,-18.141,49.17440526,-121.6786791,0
1.326,0.3176,0.3991,0.9693,0.0878,0.1865,-1.7132,-0.5582,0.2045,1.0227,851.6584,25.32,-19.86,-36.06,-104.125,-21.37,-18.141,49.17440526,-121.6786791,0
1.328,0.3176,0.3991,0.9693,0.0878,0.1865,-1.7132,-1.5095,-0.0895,0.7904,851.6584,25.32,-19.86,-36.06,-104.125,-21.37,-18.141,49.17440526,-121.6786791,0
1.345,0.3176,0.3991,0.9693,0.0878,0.1865,-1.7132,-1.5095,-0.0895,0.7904,851.6218,25.32,-19.86,-36.06,-104.125,-21.37,-18.141,49.17440526,-121.6786791,0
1.347,0.3176,0.3991,0.9693,0.0878,0.1865,-1.7132,-1.5095,-0.0895,0.7904,851.6218,25.32,-19.86,-36.06,-104.125,-21.37,-18.141,49.17440526,-121.6786791,0
1.364,0.3176,0.3991,0.9693,2.0726,1.4998,0.0512,-1.5095,-0.0895,0.7904,851.6218,25.32,-19.86,-36.06,-104.125,-21.37,-18.141,49.17440526,-121.6786791,0
1.388,0.0474,0.0307,0.9195,2.0726,1.4998,0.0512,-1.5095,-0.0895,0.7904,851.6218,25.32,-19.86,-36.06,-124.553,-1.911,-2.951,49.17440526,-121.6786791,0
1.392,0.0474,0.0307,0.9195,2.0726,1.4998,0.0512,-1.5095,-0.0895,0.7904,851.6218,26.16,-19.86,-35.88,-123.762,-1.911,-2.951,49.17440526,-121.6786791,0
1.397,0.0474,0.0307,0.9195,2.0726,1.4998,0.0512,-1.6863,1.1036,0.343,851.6218,26.16,-19.86,-35.88,-123.762,-1.911,-2.951,49.17440526,-121.6786791,0
1.426,0.0474,0.0307,0.9195,0.4951,-0.8833,-0.7236,-1.6863,1.1036,0.343,851.6218,26.16,-19.86,-35.88,-123.762,-1.911,-2.951,49.17440526,-121.6786791,0
1.444,0.0738,-0.0734,0.9092,0.4951,-0.8833,-0.7236,-1.6863,1.1036,0.343,851.6218,26.16,-19.86,-35.88,-127.821,4.597,-4.639,49.17440526,-121.6786791,0
1.455,0.0738,-0.0734,0.9092,0.4951,-0.8833,-0.7236,-1.6863,1.1036,0.343,851.6218,27,-19.86,-35.82,-127.025,4.597,-4.639,49.17440526,-121.6786791,0
1.457,0.0738,-0.0734,0.9092,0.4951,-0.8833,-0.7236,-3.4674,2.3308,0.7009,851.6218,27,-19.86,-35.82,-127.025,4.597,-4.639,49.17440526,-121.6786791,0
1.483,0.0738,-0.0734,0.9092,1.8708,0.0093,-0.8014,-3.4674,2.3308,0.7009,851.6218,27,-19.86,-35.82,-127.025,4.597,-4.639,49.17440526,-121.6786791,0
1.504,-0.108,-0.0817,1.0255,1.8708,0.0093,-0.8014,-3.4674,2.3308,0.7009,851.6218,27,-19.86,-35.82,-134.667,4.528,6.011,49.17440526,-121.6786791,0
1.505,-0.108,-0.0817,1.0255,1.8708,0.0093,-0.8014,-3.4674,2.3308,0.7009,851.6218,28.02,-19.56,-35.76,-133.056,4.528,6.011,49.17440526,-121.6786791,0
1.506,-0.108,-0.0817,1.0255,1.8708,0.0093,-0.8014,-2.4767,0.5795,0.9023,851.6218,28.02,-19.56,-35.76,-133.056,4.528,6.011,49.17440526,-121.6786791,0
1.52,-0.108,-0.0817,1.0255,1.8708,0.0093,-0.8014,-2.4767,0.5795,0.9023,851.6072,28.02,-19.56,-35.76,-133.056,4.528,6.011,49.17440526,-121.6786791,0
1.521,-0.108,-0.0817,1.0255,1.8708,0.0093,-0.8014,-2.4767,0.5795,0.9023,851.6072,28.02,-19.56,-35.76,-133.056,4.528,6.011,49.17440526,-121.6786791,0
1.541,-0.108,-0.0817,1.0255,0.4275,1.0723,0.5394,-2.4767,0.5795,0.9023,851.6072,28.02,-19.56,-35.76,-133.056,4.528,6.011,49.17440526,-121.6786791,0
1.561,-0.5697,-0.3528,0.9161,0.4275,1.0723,0.5394,-2.4767,0.5795,0.9023,851.6072,28.02,-19.56,-35.76,-171.445,18.111,31.878,49.17440526,-121.6786791,0
1.566,-0.5697,-0.3528,0.9161,0.4275,1.0723,0.5394,-2.4767,0.5795,0.9023,851.6072,29.04,-18.66,-35.7,-169.692,18.111,31.878,49.17440526,-121.6786791,0
1.567,-0.5697,-0.3528,0.9161,0.4275,1.0723,0.5394,-2.8698,0.4421,0.9683,851.6072,29.04,-18.66,-35.7,-169.692,18.111,31.878,49.17440526,-121.6786791,0
1.602,-0.5697,-0.3528,0.9161,-3.2907,-0.0495,0.0727,-2.8698,0.4421,0.9683,851.6072,29.04,-18.66,-35.7,-169.692,18.111,31.878,49.17440526,-121.6786791,0
1.624,-0.5521,-0.3802,0.9371,-3.2907,-0.0495,0.0727,-2.8698,0.4421,0.9683,851.6072,29.04,-18.66,-35.7,-168.064,19.268,30.506,49.17440526,-121.6786791,0
1.626,-0.5521,-0.3802,0.9371,-3.2907,-0.0495,0.0727,-2.8698,0.4421,0.9683,851.6072,30.24,-17.22,-35.58,-165.735,19.268,30.506,49.17440526,-121.6786791,0
1.628,-0.5521,-0.3802,0.9371,-3.2907,-0.0495,0.0727,-2.0304,1.0749,1.5095,851.6072,30.24,-17.22,-35.58,-165.735,19.268,30.506,49.17440526,-121.6786791,0
1.662,-0.5521,-0.3802,0.9371,-2.2164,0.4644,0.9128,-2.0304,1.0749,1.5095,851.6072,30.24,-17.22,-35.58,-165.735,19.268,30.506,49.17440526,-121.6786791,0
1.684,-0.1803,-0.4051,0.748,-2.2164,0.4644,0.9128,-2.0304,1.0749,1.5095,851.6072,30.24,-17.22,-35.58,-148.711,27.768,13.552,49.17440526,-121.6786791,0
1.687,-0.1803,-0.4051,0.748,-2.2164,0.4644,0.9128,-2.0304,1.0749,1.5095,851.6072,31.56,-15.72,-35.34,-146.121,27.768,13.552,49.17440526,-121.6786791,0
1.689,-0.1803,-0.4051,0.748,-2.2164,0.4644,0.9128,-2.2999,1.2272,1.5553,851.6072,31.56,-15.72,-35.34,-146.121,27.768,13.552,49.17440526,-121.6786791,0
1.702,-0.1803,-0.4051,0.748,-2.2164,0.4644,0.9128,-2.2999,1.2272,1.5553,851.4324,31.56,-15.72,-35.34,-146.121,27.768,13.552,49.17440526,-121.6786791,0
1.706,-0.1803,-0.4051,0.748,-2.2164,0.4644,0.9128,-2.2999,1.2272,1.5553,851.4324,31.56,-15.72,-35.34,-146.121,27.768,13.552,49.17440526,-121.6786791,0
1.725,-0.1803,-0.4051,0.748,2.0937,1.0187,-0.1781,-2.2999,1.2272,1.5553,851.4324,31.56,-15.72,-35.34,-146.121,27.768,13.552,49.17440526,-121.6786791,0
1.745,-0.0699,-0.3944,0.8218,2.0937,1.0187,-0.1781,-2.2999,1.2272,1.5553,851.4324,31.56,-15.72,-35.34,-137.013,25.556,4.86,49.17440526,-121.6786791,0
1.747,-0.0699,-0.3944,0.8218,2.0937,1.0187,-0.1781,-2.2999,1.2272,1.5553,851.4324,32.88,-14.04,-34.98,-134.127,25.556,4.86,49.17440526,-121.6786791,0
1.749,-0.0699,-0.3944,0.8218,2.0937,1.0187,-0.1781,-1.3018,-0.1726,1.1089,851.4324,32.88,-14.04,-34.98,-134.127,25.556,4.86,49.17440526,-121.6786791,0
1.783,-0.0699,-0.3944,0.8218,3.2325,1.3818,0.7529,-1.3018,-0.1726,1.1089,851.4324,32.88,-14.04,-34.98,-134.127,25.556,4.86,49.17440526,-121.6786791,0
1.802,-0.5262,-0.6035,1.0426,3.2325,1.3818,0.7529,-1.3018,-0.1726,1.1089,851.4324,32.88,-14.04,-34.98,-157.981,27.327,26.781,49.17440526,-121.6786791,0
1.803,-0.5262,-0.6035,1.0426,3.2325,1.3818,0.7529,-1.3018,-0.1726,1.1089,851.4324,34.26,-12.36,-34.56,-155.024,27.327,26.781,49.17440526,-121.6786791,0
1.806,-0.5262,-0.6035,1.0426,3.2325,1.3818,0.7529,-1.1761,-0.0202,0.4815,851.4324,34.26,-12.36,-34.56,-155.024,27.327,26.781,49.17440526,-121.6786791,0
1.849,-0.5262,-0.6035,1.0426,-1.5167,-1.2674,2.3869,-1.1761,-0.0202,0.4815,851.4324,34.26,-12.36,-34.56,-155.024,27.327,26.781,49.17440526,-121.6786791,0
1.864,-0.7124,-0.6494,0.6688,-1.5167,-1.2674,2.3869,-1.1761,-0.0202,0.4815,851.4324,34.26,-12.36,-34.56,177.314,33.608,46.806,49.17440526,-121.6786791,0
1.866,-0.7124,-0.6494,0.6688,-1.5167,-1.2674,2.3869,-1.1761,-0.0202,0.4815,851.4324,35.58,-10.44,-34.02,179.285,33.608,46.806,49.17440526,-121.6786791,0
1.868,-0.7124,-0.6494,0.6688,-1.5167,-1.2674,2.3869,0.2131,0.9982,0.4176,851.4324,35.58,-10.44,-34.02,179.285,33.608,46.806,49.17440526,-121.6786791,0
1.881,-0.7124,-0.6494,0.6688,-1.5167,-1.2674,2.3869,0.2131,0.9982,0.4176,851.6479,35.58,-10.44,-34.02,179.285,33.608,46.806,49.17440526,-121.6786791,0
1.885,-0.7124,-0.6494,0.6688,-1.5167,-1.2674,2.3869,0.2131,0.9982,0.4176,851.6479,35.58,-10.44,-34.02,179.285,33.608,46.806,49.17440526,-121.6786791,0
1.903,-0.7124,-0.6494,0.6688,-2.7025,-1.6051,-0.8756,0.2131,0.9982,0.4176,851.6479,35.58,-10.44,-34.02,179.285,33.608,46.806,49.17440526,-121.6786791,0
1.921,-0.4705,-0.6822,0.3581,-2.7025,-1.6051,-0.8756,0.2131,0.9982,0.4176,851.6479,35.58,-10.44,-34.02,172.811,49.081,52.728,49.17440526,-121.6786791,0
1.925,-0.4705,-0.6822,0.3581,-2.7025,-1.6051,-0.8756,0.2131,0.9982,0.4176,851.6479,36.9,-8.52,-33.36,174.426,49.081,52.728,49.17440526,-121.6786791,0
1.927,-0.4705,-0.6822,0.3581,-2.7025,-1.6051,-0.8756,-0.5092,-0.8032,0.4463,851.6479,36.9,-8.52,-33.36,174.426,49.081,52.728,49.17440526,-121.6786791,0
1.962,-0.4705,-0.6822,0.3581,-1.0422,-1.6279,-4.097,-0.5092,-0.8032,0.4463,851.6479,36.9,-8.52,-33.36,174.426,49.081,52.728,49.17440526,-121.6786791,0
1.982,-0.3083,-0.4667,0.4895,-1.0422,-1.6279,-4.097,-0.5092,-0.8032,0.4463,851.6479,36.9,-8.52,-33.36,-159.881,38.892,32.204,49.17440526,-121.6786791,0
1.986,-0.3083,-0.4667,0.4895,-1.0422,-1.6279,-4.097,-0.5092,-0.8032,0.4463,851.6479,38.22,-6.66,-32.7,-157.123,38.892,32.204,49.17440526,-121.6786791,0
1.988,-0.3083,-0.4667,0.4895,-1.0422,-1.6279,-4.097,0.0852,-0.8107,-0.1193,851.6479,38.22,-6.66,-32.7,-157.123,38.892,32.204,49.17440526,-121.6786791,0
2.021,-0.3083,-0.4667,0.4895,0.0639,0.6114,-2.9336,0.0852,-0.8107,-0.1193,851.6479,38.22,-6.66,-32.7,-157.123,38.892,32.204,49.17440526,-121.6786791,0
2.043,-0.3127,-0.5341,0.5794,0.0639,0.6114,-2.9336,0.0852,-0.8107,-0.1193,851.6479,38.22,-6.66,-32.7,-152.472,39.049,28.355,49.17440526,-121.6786791,0
2.045,-0.3127,-0.5341,0.5794,0.0639,0.6114,-2.9336,0.0852,-0.8107,-0.1193,851.6479,39.3,-4.68,-32.04,-149.709,39.049,28.355,49.17440526,-121.6786791,0
2.047,-0.3127,-0.5341,0.5794,0.0639,0.6114,-2.9336,0.0543,-1.2346,-0.1619,851.6479,39.3,-4.68,-32.04,-149.709,39.049,28.355,49.17440526,-121.6786791,0
2.064,-0.3127,-0.5341,0.5794,0.0639,0.6114,-2.9336,0.0543,-1.2346,-0.1619,851.4841,39.3,-4.68,-32.04,-149.709,39.049,28.355,49.17440526,-121.6786791,0
2.067,-0.3127,-0.5341,0.5794,0.0639,0.6114,-2.9336,0.0543,-1.2346,-0.1619,851.4841,39.3,-4.68,-32.04,-149.709,39.049,28.355,49.17440526,-121.6786791,0
2.081,-0.3127,-0.5341,0.5794,-0.5253,0.1105,-2.1417,0.0543,-1.2346,-0.1619,851.4841,39.3,-4.68,-32.04,-149.709,39.049,28.355,49.17440526,-121.6786791,0
2.102,-0.5292,-0.7735,0.3684,-0.5253,0.1105,-2.1417,0.0543,-1.2346,-0.1619,851.4841,39.3,-4.68,-32.04,174.75,50.188,55.158,49.17440526,-121.6786791,0
2.105,-0.5292,-0.7735,0.3684,-0.5253,0.1105,-2.1417,0.0543,-1.2346,-0.1619,851.4841,40.26,-2.76,-31.38,176.15,50.188,55.158,49.17440526,-121.6786791,0
2.107,-0.5292,-0.7735,0.3684,-0.5253,0.1105,-2.1417,-0.8831,-1.7651,0.3015,851.4841,40.26,-2.76,-31.38,176.15,50.188,55.158,49.17440526,-121.6786791,0
2.14,-0.5292,-0.7735,0.3684,-3.2518,-1.6038,-3.9205,-0.8831,-1.7651,0.3015,851.4841,40.26,-2.76,-31.38,176.15,50.188,55.158,49.17440526,-121.6786791,0
2.16,-0.2184,-0.5898,0.7309,-3.2518,-1.6038,-3.9205,-0.8831,-1.7651,0.3015,851.4841,40.26,-2.76,-31.38,-133.033,37.711,16.637,49.17440526,-121.6786791,0
2.162,-0.2184,-0.5898,0.7309,-3.2518,-1.6038,-3.9205,-0.8831,-1.7651,0.3015,851.4841,41.04,-0.72,-30.84,-130.27,37.711,16.637,49.17440526,-121.6786791,0
2.163,-0.2184,-0.5898,0.7309,-3.2518,-1.6038,-3.9205,-1.3156,-0.7212,1.0386,851.4841,41.04,-0.72,-30.84,-130.27,37.711,16.637,49.17440526,-121.6786791,0
2.2,-0.2184,-0.5898,0.7309,-0.0789,0.5758,-0.015,-1.3156,-0.7212,1.0386,851.4841,41.04,-0.72,-30.84,-130.27,37.711,16.637,49.17440526,-121.6786791,0
2.221,-0.2981,-0.2488,0.5926,-0.0789,0.5758,-0.015,-1.3156,-0.7212,1.0386,851.4841,41.04,-0.72,-30.84,-126.413,20.557,26.7,49.17440526,-121.6786791,0
2.224,-0.2981,-0.2488,0.5926,-0.0789,0.5758,-0.015,-1.3156,-0.7212,1.0386,851.4841,41.64,1.56,-30.42,-121.907,20.557,26.7,49.17440526,-121.6786791,0
2.226,-0.2981,-0.2488,0.5926,-0.0789,0.5758,-0.015,-0.3718,-0.5124,0.1193,851.4841,41.64,1.56,-30.42,-121.907,20.557,26.7,49.17440526,-121.6786791,0
2.243,-0.2981,-0.2488,0.5926,-0.0789,0.5758,-0.015,-0.3718,-0.5124,0.1193,851.3271,41.64,1.56,-30.42,-121.907,20.557,26.7,49.17440526,-121.6786791,0
2.245,-0.2981,-0.2488,0.5926,-0.0789,0.5758,-0.015,-0.3718,-0.5124,0.1193,851.3271,41.64,1.56,-30.42,-121.907,20.557,26.7,49.17440526,-121.6786791,0
2.261,-0.2981,-0.2488,0.5926,-0.8434,3.9167,-1.3668,-0.3718,-0.5124,0.1193,851.3271,41.64,1.56,-30.42,-121.907,20.557,26.7,49.17440526,-121.6786791,0
2.28,-0.3176,-0.7486,-0.1838,-0.8434,3.9167,-1.3668,-0.3718,-0.5124,0.1193,851.3271,41.64,1.56,-30.42,110.876,63.888,120.056,49.17440526,-121.6786791,0
2.283,-0.3176,-0.7486,-0.1838,-0.8434,3.9167,-1.3668,-0.3718,-0.5124,0.1193,851.3271,42.24,3.96,-30.06,110.425,63.888,120.056,49.17440526,-121.6786791,0
2.285,-0.3176,-0.7486,-0.1838,-0.8434,3.9167,-1.3668,-0.1832,-0.0075,0.1012,851.3271,42.24,3.96,-30.06,110.425,63.888,120.056,49.17440526,-121.6786791,0
2.32,-0.3176,-0.7486,-0.1838,-0.9711,-0.3977,-8.3919,-0.1832,-0.0075,0.1012,851.3271,42.24,3.96,-30.06,110.425,63.888,120.056,49.17440526,-121.6786791,0
2.34,-0.1339,-0.7002,0.3073,-0.9711,-0.3977,-8.3919,-0.1832,-0.0075,0.1012,851.3271,42.24,3.96,-30.06,-145.148,64.422,23.543,49.17440526,-121.6786791,0
2.341,-0.1339,-0.7002,0.3073,-0.9711,-0.3977,-8.3919,-0.1832,-0.0075,0.1012,851.3271,42.78,6.48,-29.76,-143.712,64.422,23.543,49.17440526,-121.6786791,0
2.345,-0.1339,-0.7002,0.3073,-0.9711,-0.3977,-8.3919,-1.4147,0.4708,0.6679,851.3271,42.78,6.48,-29.76,-143.712,64.422,23.543,49.17440526,-121.6786791,0
2.382,-0.1339,-0.7002,0.3073,1.3586,0.7637,-2.5458,-1.4147,0.4708,0.6679,851.3271,42.78,6.48,-29.76,-143.712,64.422,23.543,49.17440526,-121.6786791,0
2.4,-0.0513,-0.9959,0.5946,1.3586,0.7637,-2.5458,-1.4147,0.4708,0.6679,851.3271,42.78,6.48,-29.76,-122.228,59.067,4.932,49.17440526,-121.6786791,0
2.402,-0.0513,-0.9959,0.5946,1.3586,0.7637,-2.5458,-1.4147,0.4708,0.6679,851.3271,43.32,9.18,-29.4,-120.149,59.067,4.932,49.17440526,-121.6786791,0
2.404,-0.0513,-0.9959,0.5946,1.3586,0.7637,-2.5458,-0.1971,-0.8565,0.1364,851.3271,43.32,9.18,-29.4,-120.149,59.067,4.932,49.17440526,-121.6786791,0
2.419,-0.0513,-0.9959,0.5946,1.3586,0.7637,-2.5458,-0.1971,-0.8565,0.1364,851.4553,43.32,9.18,-29.4,-120.149,59.067,4.932,49.17440526,-121.6786791,0
2.421,-0.0513,-0.9959,0.5946,1.3586,0.7637,-2.5458,-0.1971,-0.8565,0.1364,851.4553,43.32,9.18,-29.4,-120.149,59.067,4.932,49.17440526,-121.6786791,0
2.44,-0.0513,-0.9959,0.5946,1.8268,-1.9767,0.3339,-0.1971,-0.8565,0.1364,851.4553,43.32,9.18,-29.4,-120.149,59.067,4.932,49.17440526,-121.6786791,0
2.46,-0.3767,-0.7247,0.6737,1.8268,-1.9767,0.3339,-0.1971,-0.8565,0.1364,851.4553,43.32,9.18,-29.4,-137.205,43.192,29.212,49.17440526,-121.6786791,0
2.462,-0.3767,-0.7247,0.6737,1.8268,-1.9767,0.3339,-0.1971,-0.8565,0.1364,851.4553,43.68,11.82,-28.98,-134.157,43.192,29.212,49.17440526,-121.6786791,0
2.464,-0.3767,-0.7247,0.6737,1.8268,-1.9767,0.3339,-0.4559,-0.0703,0.3143,851.4553,43.68,11.82,-28.98,-134.157,43.192,29.212,49.17440526,-121.6786791,0
2.502,-0.3767,-0.7247,0.6737,-0.9247,0.6864,1.3246,-0.4559,-0.0703,0.3143,851.4553,43.68,11.82,-28.98,-134.157,43.192,29.212,49.17440526,-121.6786791,0
2.52,-0.1642,-0.5537,0.4788,-0.9247,0.6864,1.3246,-0.4559,-0.0703,0.3143,851.4553,43.68,11.82,-28.98,-125.437,47.567,18.927,49.17440526,-121.6786791,0
2.521,-0.1642,-0.5537,0.4788,-0.9247,0.6864,1.3246,-0.4559,-0.0703,0.3143,851.4553,43.86,14.04,-28.56,-123.049,47.567,18.927,49.17440526,-121.6786791,0
2.525,-0.1642,-0.5537,0.4788,-0.9247,0.6864,1.3246,0.3995,1.0195,0.6029,851.4553,43.86,14.04,-28.56,-123.049,47.567,18.927,49.17440526,-121.6786791,0
2.561,-0.1642,-0.5537,0.4788,1.4345,2.138,-0.7574,0.3995,1.0195,0.6029,851.4553,43.86,14.04,-28.56,-123.049,47.567,18.927,49.17440526,-121.6786791,0
2.583,-0.6528,-1.6394,0.8037,1.4345,2.138,-0.7574,0.3995,1.0195,0.6029,851.4553,43.86,14.04,-28.56,-155.146,57.724,39.084,49.17440526,-121.6786791,0
2.588,-0.6528,-1.6394,0.8037,1.4345,2.138,-0.7574,0.3995,1.0195,0.6029,851.4553,43.86,15.78,-28.2,-154.074,57.724,39.084,49.17440526,-121.6786791,0
2.594,-0.6528,-1.6394,0.8037,1.4345,2.138,-0.7574,0.1108,-0.3505,-0.523,851.4553,43.86,15.78,-28.2,-154.074,57.724,39.084,49.17440526,-121.6786791,0
2.603,-0.6528,-1.6394,0.8037,1.4345,2.138,-0.7574,0.1108,-0.3505,-0.523,851.3899,43.86,15.78,-28.2,-154.074,57.724,39.084,49.17440526,-121.6786791,0
2.607,-0.6528,-1.6394,0.8037,1.4345,2.138,-0.7574,0.1108,-0.3505,-0.523,851.3899,43.86,15.78,-28.2,-154.074,57.724,39.084,49.17440526,-121.6786791,0
2.621,-0.6528,-1.6394,0.8037,-3.5886,-8.4918,2.3159,0.1108,-0.3505,-0.523,851.3899,43.86,15.78,-28.2,-154.074,57.724,39.084,49.17440526,-121.6786791,0
2.641,-0.3064,-0.7931,0.5907,-3.5886,-8.4918,2.3159,0.1108,-0.3505,-0.523,851.3899,43.86,15.78,-28.2,-133.359,50.003,27.414,49.17440526,-121.6786791,0
2.643,-0.3064,-0.7931,0.5907,-3.5886,-8.4918,2.3159,0.1108,-0.3505,-0.523,851.3899,43.68,17.34,-27.9,-131.863,50.003,27.414,49.17440526,-121.6786791,0
2.644,-0.3064,-0.7931,0.5907,-3.5886,-8.4918,2.3159,-0.0437,-0.392,-0.4964,851.3899,43.68,17.34,-27.9,-131.863,50.003,27.414,49.17440526,-121.6786791,0
2.683,-0.3064,-0.7931,0.5907,-0.5969,-0.0116,0.297,-0.0437,-0.392,-0.4964,851.3899,43.68,17.34,-27.9,-131.863,50.003,27.414,49.17440526,-121.6786791,0
2.704,-0.1456,-0.8473,0.6346,-0.5969,-0.0116,0.297,-0.0437,-0.392,-0.4964,851.3899,43.68,17.34,-27.9,-117.284,52.459,12.922,49.17440526,-121.6786791,0
2.708,-0.1456,-0.8473,0.6346,-0.5969,-0.0116,0.297,-0.0437,-0.392,-0.4964,851.3899,43.44,18.84,-27.72,-116.024,52.459,12.922,49.17440526,-121.6786791,0
2.711,-0.1456,-0.8473,0.6346,-0.5969,-0.0116,0.297,-0.4953,-0.8661,-1.501,851.3899,43.44,18.84,-27.72,-116.024,52.459,12.922,49.17440526,-121.6786791,0
2.746,-0.1456,-0.8473,0.6346,0.0494,-0.2568,0.8123,-0.4953,-0.8661,-1.501,851.3899,43.44,18.84,-27.72,-116.024,52.459,12.922,49.17440526,-121.6786791,0
2.764,-0.3064,-0.9973,0.535,0.0494,-0.2568,0.8123,-0.4953,-0.8661,-1.501,851.3899,43.44,18.84,-27.72,-140.402,58.278,29.798,49.17440526,-121.6786791,0
2.768,-0.3064,-0.9973,0.535,0.0494,-0.2568,0.8123,-0.4953,-0.8661,-1.501,851.3899,42.96,20.28,-27.66,-139.865,58.278,29.798,49.17440526,-121.6786791,0
2.771,-0.3064,-0.9973,0.535,0.0494,-0.2568,0.8123,-0.1598,-0.3483,-0.8394,851.3899,42.96,20.28,-27.66,-139.865,58.278,29.798,49.17440526,-121.6786791,0
2.781,-0.3064,-0.9973,0.535,0.0494,-0.2568,0.8123,-0.1598,-0.3483,-0.8394,851.4065,42.96,20.28,-27.66,-139.865,58.278,29.798,49.17440526,-121.6786791,0
2.785,-0.3064,-0.9973,0.535,0.0494,-0.2568,0.8123,-0.1598,-0.3483,-0.8394,851.4065,42.96,20.28,-27.66,-139.865,58.278,29.798,49.17440526,-121.6786791,0
2.804,-0.3064,-0.9973,0.535,-1.9256,-1.6688,-0.1721,-0.1598,-0.3483,-0.8394,851.4065,42.96,20.28,-27.66,-139.865,58.278,29.798,49.17440526,-121.6786791,0
2.834,-0.1412,-0.7286,0.6517,-1.9256,-1.6688,-0.1721,-0.1598,-0.3483,-0.8394,851.4065,42.96,20.28,-27.66,-109.732,47.532,12.225,49.17440526,-121.6786791,0
2.843,-0.1412,-0.7286,0.6517,-1.9256,-1.6688,-0.1721,-0.1598,-0.3483,-0.8394,851.4065,42.3,21.6,-27.6,-108.564,47.532,12.225,49.17440526,-121.6786791,0
2.849,-0.1412,-0.7286,0.6517,-1.9256,-1.6688,-0.1721,0.1832,-0.2099,-0.0437,851.4065,42.3,21.6,-27.6,-108.564,47.532,12.225,49.17440526,-121.6786791,0
2.862,-0.1412,-0.7286,0.6517,-0.1304,0.8998,0.9136,0.1832,-0.2099,-0.0437,851.4065,42.3,21.6,-27.6,-108.564,47.532,12.225,49.17440526,-121.6786791,0
2.88,-0.1427,-0.8439,0.5848,-0.1304,0.8998,0.9136,0.1832,-0.2099,-0.0437,851.4065,42.3,21.6,-27.6,-116.792,54.499,13.711,49.17440526,-121.6786791,0
2.882,-0.1427,-0.8439,0.5848,-0.1304,0.8998,0.9136,0.1832,-0.2099,-0.0437,851.4065,41.4,22.92,-27.66,-116.186,54.499,13.711,49.17440526,-121.6786791,0
2.885,-0.1427,-0.8439,0.5848,-0.1304,0.8998,0.9136,-0.5955,1.6011,0.1268,851.4065,41.4,22.92,-27.66,-116.186,54.499,13.711,49.17440526,-121.6786791,0
2.931,-0.1427,-0.8439,0.5848,0.5444,0.007,0.8439,-0.5955,1.6011,0.1268,851.4065,41.4,22.92,-27.66,-116.186,54.499,13.711,49.17440526,-121.6786791,0
2.95,-0.152,-1.1092,0.1797,0.5444,0.007,0.8439,-0.5955,1.6011,0.1268,851.4065,41.4,22.92,-27.66,-161.883,78.02,40.211,49.17440526,-121.6786791,0
2.964,-0.152,-1.1092,0.1797,0.5444,0.007,0.8439,-0.5955,1.6011,0.1268,851.4065,40.38,24.36,-27.72,-162.544,78.02,40.211,49.17440526,-121.6786791,0
2.968,-0.152,-1.1092,0.1797,0.5444,0.007,0.8439,-0.8043,1.2336,0.1939,851.4065,40.38,24.36,-27.72,-162.544,78.02,40.211,49.17440526,-121.6786791,0
2.97,-0.152,-1.1092,0.1797,0.5444,0.007,0.8439,-0.8043,1.2336,0.1939,851.6021,40.38,24.36,-27.72,-162.544,78.02,40.211,49.17440526,-121.6786791,0
2.972,-0.152,-1.1092,0.1797,0.5444,0.007,0.8439,-0.8043,1.2336,0.1939,851.6021,40.38,24.36,-27.72,-162.544,78.02,40.211,49.17440526,-121.6786791,0
2.98,-0.152,-1.1092,0.1797,0.867,-2.2292,-2.2323,-0.8043,1.2336,0.1939,851.6021,40.38,24.36,-27.72,-162.544,78.02,40.211,49.17440526,-121.6786791,0
3.001,-0.7525,-0.8732,0.0747,0.867,-2.2292,-2.2323,-0.8043,1.2336,0.1939,851.6021,40.38,24.36,-27.72,124.964,49.109,84.331,49.17440526,-121.6786791,0
3.002,-0.7525,-0.8732,0.0747,0.867,-2.2292,-2.2323,-0.8043,1.2336,0.1939,851.6021,39.36,25.86,-27.72,121.901,49.109,84.331,49.17440526,-121.6786791,0
3.005,-0.7525,-0.8732,0.0747,0.867,-2.2292,-2.2323,-0.1854,-1.0535,-0.636,851.6021,39.36,25.86,-27.72,121.901,49.109,84.331,49.17440526,-121.6786791,0
3.042,-0.7525,-0.8732,0.0747,-5.2058,0.2196,-3.0668,-0.1854,-1.0535,-0.636,851.6021,39.36,25.86,-27.72,121.901,49.109,84.331,49.17440526,-121.6786791,0
3.062,-0.2282,-1.3105,0.2682,-5.2058,0.2196,-3.0668,-0.1854,-1.0535,-0.636,851.6021,39.36,25.86,-27.72,-162.588,74.96,40.392,49.17440526,-121.6786791,0
3.068,-0.2282,-1.3105,0.2682,-5.2058,0.2196,-3.0668,-0.1854,-1.0535,-0.636,851.6021,38.4,27.42,-27.6,-163.024,74.96,40.392,49.17440526,-121.6786791,0
3.071,-0.2282,-1.3105,0.2682,-5.2058,0.2196,-3.0668,-0.4708,0.0884,0.0181,851.6021,38.4,27.42,-27.6,-163.024,74.96,40.392,49.17440526,-121.6786791,0
3.101,-0.2282,-1.3105,0.2682,0.0717,-3.9986,-0.924,-0.4708,0.0884,0.0181,851.6021,38.4,27.42,-27.6,-163.024,74.96,40.392,49.17440526,-121.6786791,0
3.122,-0.1896,-0.8825,0.3454,0.0717,-3.9986,-0.924,-0.4708,0.0884,0.0181,851.6021,38.4,27.42,-27.6,-143.739,65.941,28.762,49.17440526,-121.6786791,0
3.126,-0.1896,-0.8825,0.3454,0.0717,-3.9986,-0.924,-0.4708,0.0884,0.0181,851.6021,37.56,29.1,-27.36,-143.33,65.941,28.762,49.17440526,-121.6786791,0
3.135,-0.1896,-0.8825,0.3454,0.0717,-3.9986,-0.924,-0.4005,-0.4879,0.5103,851.6021,37.56,29.1,-27.36,-143.33,65.941,28.762,49.17440526,-121.6786791,0
3.154,-0.1896,-0.8825,0.3454,0.0717,-3.9986,-0.924,-0.4005,-0.4879,0.5103,851.647,37.56,29.1,-27.36,-143.33,65.941,28.762,49.17440526,-121.6786791,0
3.16,-0.1896,-0.8825,0.3454,0.0717,-3.9986,-0.924,-0.4005,-0.4879,0.5103,851.647,37.56,29.1,-27.36,-143.33,65.941,28.762,49.17440526,-121.6786791,0
3.167,-0.1896,-0.8825,0.3454,0.4888,0.1971,-0.1393,-0.4005,-0.4879,0.5103,851.647,37.56,29.1,-27.36,-143.33,65.941,28.762,49.17440526,-121.6786791,0
3.178,-0.1578,-1.0418,0.3659,0.4888,0.1971,-0.1393,-0.4005,-0.4879,0.5103,851.647,37.56,29.1,-27.36,-138.741,69.068,23.331,49.17440526,-121.6786791,0
3.18,-0.1578,-1.0418,0.3659,0.4888,0.1971,-0.1393,-0.4005,-0.4879,0.5103,851.647,36.9,30.78,-26.82,-137.802,69.068,23.331,49.17440526,-121.6786791,0
3.182,-0.1578,-1.0418,0.3659,0.4888,0.1971,-0.1393,0.4336,-0.1427,0.2727,851.647,36.9,30.78,-26.82,-137.802,69.068,23.331,49.17440526,-121.6786791,0
3.226,-0.1578,-1.0418,0.3659,0.8194,-1.5186,-0.2923,0.4336,-0.1427,0.2727,851.647,36.9,30.78,-26.82,-137.802,69.068,23.331,49.17440526,-121.6786791,0
3.251,-0.2599,-0.8126,0.5193,0.8194,-1.5186,-0.2923,0.4336,-0.1427,0.2727,851.647,36.9,30.78,-26.82,-125.643,54.448,26.589,49.17440526,-121.6786791,0
3.26,-0.2599,-0.8126,0.5193,0.8194,-1.5186,-0.2923,0.4336,-0.1427,0.2727,851.647,36.36,32.4,-26.28,-123.088,54.448,26.589,49.17440526,-121.6786791,0
3.272,-0.2599,-0.8126,0.5193,0.8194,-1.5186,-0.2923,0.5944,-0.4176,-0.0447,851.647,36.36,32.4,-26.28,-123.088,54.448,26.589,49.17440526,-121.6786791,0
3.288,-0.2599,-0.8126,0.5193,-0.1923,0.6899,1.1224,0.5944,-0.4176,-0.0447,851.647,36.36,32.4,-26.28,-123.088,54.448,26.589,49.17440526,-121.6786791,0
3.299,-0.1925,-0.839,0.4744,-0.1923,0.6899,1.1224,0.5944,-0.4176,-0.0447,851.647,36.36,32.4,-26.28,-123.203,58.609,22.088,49.17440526,-121.6786791,0
3.301,-0.1925,-0.839,0.4744,-0.1923,0.6899,1.1224,0.5944,-0.4176,-0.0447,851.647,35.82,33.9,-25.74,-121.13,58.609,22.088,49.17440526,-121.6786791,0
3.304,-0.1925,-0.839,0.4744,-0.1923,0.6899,1.1224,0.0618,0.0522,-0.0096,851.647,35.82,33.9,-25.74,-121.13,58.609,22.088,49.17440526,-121.6786791,0
3.319,-0.1925,-0.839,0.4744,-0.1923,0.6899,1.1224,0.0618,0.0522,-0.0096,851.6411,35.82,33.9,-25.74,-121.13,58.609,22.088,49.17440526,-121.6786791,0
3.321,-0.1925,-0.839,0.4744,-0.1923,0.6899,1.1224,0.0618,0.0522,-0.0096,851.6411,35.82,33.9,-25.74,-121.13,58.609,22.088,49.17440526,-121.6786791,0
3.339,-0.1925,-0.839,0.4744,0.4363,0.4031,0.6022,0.0618,0.0522,-0.0096,851.6411,35.82,33.9,-25.74,-121.13,58.609,22.088,49.17440526,-121.6786791,0
3.363,-0.2805,-0.9074,0.4387,0.4363,0.4031,0.6022,0.0618,0.0522,-0.0096,851.6411,35.82,33.9,-25.74,-138.853,60.152,32.59,49.17440526,-121.6786791,0
3.368,-0.2805,-0.9074,0.4387,0.4363,0.4031,0.6022,0.0618,0.0522,-0.0096,851.6411,35.34,35.16,-25.2,-137.085,60.152,32.59,49.17440526,-121.6786791,0
3.372,-0.2805,-0.9074,0.4387,0.4363,0.4031,0.6022,0.1854,0.065,-0.0277,851.6411,35.34,35.16,-25.2,-137.085,60.152,32.59,49.17440526,-121.6786791,0
3.408,-0.2805,-0.9074,0.4387,-0.3956,-0.3475,0.1024,0.1854,0.065,-0.0277,851.6411,35.34,35.16,-25.2,-137.085,60.152,32.59,49.17440526,-121.6786791,0
3.424,-0.1715,-0.8893,0.4612,-0.3956,-0.3475,0.1024,0.1854,0.065,-0.0277,851.6411,35.34,35.16,-25.2,-120.651,61.045,20.399,49.17440526,-121.6786791,0
3.431,-0.1715,-0.8893,0.4612,-0.3956,-0.3475,0.1024,0.1854,0.065,-0.0277,851.6411,34.86,36.18,-24.66,-118.989,61.045,20.399,49.17440526,-121.6786791,0
3.437,-0.1715,-0.8893,0.4612,-0.3956,-0.3475,0.1024,0.6083,0.1811,-0.082,851.6411,34.86,36.18,-24.66,-118.989,61.045,20.399,49.17440526,-121.6786791,0
3.461,-0.1715,-0.8893,0.4612,0.57,-0.2638,0.0842,0.6083,0.1811,-0.082,851.6411,34.86,36.18,-24.66,-118.989,61.045,20.399,49.17440526,-121.6786791,0
3.479,-0.2428,-0.7037,0.2242,0.57,-0.2638,0.0842,0.6083,0.1811,-0.082,851.6411,34.86,36.18,-24.66,-166.449,64.84,47.284,49.17440526,-121.6786791,0
3.481,-0.2428,-0.7037,0.2242,0.57,-0.2638,0.0842,0.6083,0.1811,-0.082,851.6411,34.56,36.96,-24.12,-165.469,64.84,47.284,49.17440526,-121.6786791,0
3.487,-0.2428,-0.7037,0.2242,0.57,-0.2638,0.0842,0.1182,0.2439,0.3185,851.6411,34.56,36.96,-24.12,-165.469,64.84,47.284,49.17440526,-121.6786791,0
3.498,-0.2428,-0.7037,0.2242,0.57,-0.2638,0.0842,0.1182,0.2439,0.3185,851.5271,34.56,36.96,-24.12,-165.469,64.84,47.284,49.17440526,-121.6786791,0
3.5,-0.2428,-0.7037,0.2242,0.57,-0.2638,0.0842,0.1182,0.2439,0.3185,851.5271,34.56,36.96,-24.12,-165.469,64.84,47.284,49.17440526,-121.6786791,0
3.519,-0.2428,-0.7037,0.2242,-0.1307,1.4551,-2.4258,0.1182,0.2439,0.3185,851.5271,34.56,36.96,-24.12,-165.469,64.84,47.284,49.17440526,-121.6786791,0
3.541,-0.3103,-0.7476,0.45,-0.1307,1.4551,-2.4258,0.1182,0.2439,0.3185,851.5271,34.56,36.96,-24.12,-124.268,53.832,34.589,49.17440526,-121.6786791,0
3.548,-0.3103,-0.7476,0.45,-0.1307,1.4551,-2.4258,0.1182,0.2439,0.3185,851.5271,34.2,37.68,-23.64,-121.83,53.832,34.589,49.17440526,-121.6786791,0
3.554,-0.3103,-0.7476,0.45,-0.1307,1.4551,-2.4258,0.424,-0.5752,-0.1971,851.5271,34.2,37.68,-23.64,-121.83,53.832,34.589,49.17440526,-121.6786791,0
3.578,-0.3103,-0.7476,0.45,-1.0369,0.9597,-0.4369,0.424,-0.5752,-0.1971,851.5271,34.2,37.68,-23.64,-121.83,53.832,34.589,49.17440526,-121.6786791,0
3.599,-0.02,-0.8175,0.5765,-1.0369,0.9597,-0.4369,0.424,-0.5752,-0.1971,851.5271,34.2,37.68,-23.64,-87.512,54.793,1.99,49.17440526,-121.6786791,0
3.601,-0.02,-0.8175,0.5765,-1.0369,0.9597,-0.4369,0.424,-0.5752,-0.1971,851.5271,33.84,38.34,-23.16,-86.132,54.793,1.99,49.17440526,-121.6786791,0
3.602,-0.02,-0.8175,0.5765,-1.0369,0.9597,-0.4369,0.9183,-1.2591,-0.5103,851.5271,33.84,38.34,-23.16,-86.132,54.793,1.99,49.17440526,-121.6786791,0
3.642,-0.02,-0.8175,0.5765,1.2651,0.0994,0.335,0.9183,-1.2591,-0.5103,851.5271,33.84,38.34,-23.16,-86.132,54.793,1.99,49.17440526,-121.6786791,0
3.659,0.0205,-0.7208,0.47,1.2651,0.0994,0.335,0.9183,-1.2591,-0.5103,851.5271,33.84,38.34,-23.16,-85.377,56.868,-2.5,49.17440526,-121.6786791,0
3.661,0.0205,-0.7208,0.47,1.2651,0.0994,0.335,0.9183,-1.2591,-0.5103,851.5271,33.48,38.94,-22.74,-84.227,56.868,-2.5,49.17440526,-121.6786791,0
3.665,0.0205,-0.7208,0.47,1.2651,0.0994,0.335,0.2642,0.7084,-0.4314,851.5271,33.48,38.94,-22.74,-84.227,56.868,-2.5,49.17440526,-121.6786791,0
3.677,0.0205,-0.7208,0.47,1.2651,0.0994,0.335,0.2642,0.7084,-0.4314,851.585,33.48,38.94,-22.74,-84.227,56.868,-2.5,49.17440526,-121.6786791,0
3.679,0.0205,-0.7208,0.47,1.2651,0.0994,0.335,0.2642,0.7084,-0.4314,851.585,33.48,38.94,-22.74,-84.227,56.868,-2.5,49.17440526,-121.6786791,0
3.699,0.0205,-0.7208,0.47,1.6117,1.0384,-0.7364,0.2642,0.7084,-0.4314,851.585,33.48,38.94,-22.74,-84.227,56.868,-2.5,49.17440526,-121.6786791,0
3.717,0.001,-0.6861,0.576,1.6117,1.0384,-0.7364,0.2642,0.7084,-0.4314,851.585,33.48,38.94,-22.74,-77.117,49.984,-0.097,49.17440526,-121.6786791,0
3.721,0.001,-0.6861,0.576,1.6117,1.0384,-0.7364,0.2642,0.7084,-0.4314,851.585,33.12,39.3,-22.5,-76.303,49.984,-0.097,49.17440526,-121.6786791,0
3.722,0.001,-0.6861,0.576,1.6117,1.0384,-0.7364,-0.0948,0.0863,0.489,851.585,33.12,39.3,-22.5,-76.303,49.984,-0.097,49.17440526,-121.6786791,0
3.757,0.001,-0.6861,0.576,1.735,1.279,0.2456,-0.0948,0.0863,0.489,851.585,33.12,39.3,-22.5,-76.303,49.984,-0.097,49.17440526,-121.6786791,0
3.777,-0.1182,-0.7525,0.5433,1.735,1.279,0.2456,-0.0948,0.0863,0.489,851.585,33.12,39.3,-22.5,-89.988,53.542,12.279,49.17440526,-121.6786791,0
3.779,-0.1182,-0.7525,0.5433,1.735,1.279,0.2456,-0.0948,0.0863,0.489,851.585,32.94,39.6,-22.38,-89.354,53.542,12.279,49.17440526,-121.6786791,0
3.781,-0.1182,-0.7525,0.5433,1.735,1.279,0.2456,0.0352,0.0629,0.0447,851.585,32.94,39.6,-22.38,-89.354,53.542,12.279,49.17440526,-121.6786791,0
3.817,-0.1182,-0.7525,0.5433,0.565,0.6465,-0.0478,0.0352,0.0629,0.0447,851.585,32.94,39.6,-22.38,-89.354,53.542,12.279,49.17440526,-121.6786791,0
3.85,-0.1529,-0.7897,0.6601,0.565,0.6465,-0.0478,0.0352,0.0629,0.0447,851.585,32.94,39.6,-22.38,-82.422,49.37,13.045,49.17440526,-121.6786791,0
3.853,-0.1529,-0.7897,0.6601,0.565,0.6465,-0.0478,0.0352,0.0629,0.0447,851.585,32.76,39.72,-22.26,-81.967,49.37,13.045,49.17440526,-121.6786791,0
3.857,-0.1529,-0.7897,0.6601,0.565,0.6465,-0.0478,-0.0458,0.1161,0.1087,851.585,32.76,39.72,-22.26,-81.967,49.37,13.045,49.17440526,-121.6786791,0
3.86,-0.1529,-0.7897,0.6601,0.565,0.6465,-0.0478,-0.0458,0.1161,0.1087,851.3601,32.76,39.72,-22.26,-81.967,49.37,13.045,49.17440526,-121.6786791,0
3.862,-0.1529,-0.7897,0.6601,0.565,0.6465,-0.0478,-0.0458,0.1161,0.1087,851.3601,32.76,39.72,-22.26,-81.967,49.37,13.045,49.17440526,-121.6786791,0
3.879,-0.1529,-0.7897,0.6601,0.2597,0.2834,1.1089,-0.0458,0.1161,0.1087,851.3601,32.76,39.72,-22.26,-81.967,49.37,13.045,49.17440526,-121.6786791,0
3.898,-0.0948,-0.8107,0.6615,0.2597,0.2834,1.1089,-0.0458,0.1161,0.1087,851.3601,32.76,39.72,-22.26,-80.922,50.499,8.155,49.17440526,-121.6786791,0
3.9,-0.0948,-0.8107,0.6615,0.2597,0.2834,1.1089,-0.0458,0.1161,0.1087,851.3601,32.64,39.72,-22.26,-80.86,50.499,8.155,49.17440526,-121.6786791,0
3.902,-0.0948,-0.8107,0.6615,0.2597,0.2834,1.1089,-0.5848,0.6818,0.4506,851.3601,32.64,39.72,-22.26,-80.86,50.499,8.155,49.17440526,-121.6786791,0
3.938,-0.0948,-0.8107,0.6615,1.1428,0.2144,1.452,-0.5848,0.6818,0.4506,851.3601,32.64,39.72,-22.26,-80.86,50.499,8.155,49.17440526,-121.6786791,0
3.969,-0.0342,0.0957,0.0757,1.1428,0.2144,1.452,-0.5848,0.6818,0.4506,851.3601,32.64,39.72,-22.26,-21.775,-49.052,24.322,49.17440526,-121.6786791,0
3.977,-0.0342,0.0957,0.0757,1.1428,0.2144,1.452,-0.5848,0.6818,0.4506,851.3601,32.52,39.66,-22.26,-21.699,-49.052,24.322,49.17440526,-121.6786791,0
3.985,-0.0342,0.0957,0.0757,1.1428,0.2144,1.452,0.196,0.4836,1.2591,851.3601,32.52,39.66,-22.26,-21.699,-49.052,24.322,49.17440526,-121.6786791,0
3.998,-0.0342,0.0957,0.0757,2.3426,8.9131,-4.2978,0.196,0.4836,1.2591,851.3601,32.52,39.66,-22.26,-21.699,-49.052,24.322,49.17440526,-121.6786791,0
4.021,-0.15,-0.3675,-0.0313,2.3426,8.9131,-4.2978,0.196,0.4836,1.2591,851.3601,32.52,39.66,-22.26,109.223,67.365,101.798,49.17440526,-121.6786791,0
4.024,-0.15,-0.3675,-0.0313,2.3426,8.9131,-4.2978,0.196,0.4836,1.2591,851.3601,32.4,39.42,-22.38,109.096,67.365,101.798,49.17440526,-121.6786791,0
4.026,-0.15,-0.3675,-0.0313,2.3426,8.9131,-4.2978,0.3483,1.8706,1.8919,851.3601,32.4,39.42,-22.38,109.096,67.365,101.798,49.17440526,-121.6786791,0
4.038,-0.15,-0.3675,-0.0313,2.3426,8.9131,-4.2978,0.3483,1.8706,1.8919,851.4448,32.4,39.42,-22.38,109.096,67.365,101.798,49.17440526,-121.6786791,0
4.04,-0.15,-0.3675,-0.0313,2.3426,8.9131,-4.2978,0.3483,1.8706,1.8919,851.4448,32.4,39.42,-22.38,109.096,67.365,101.798,49.17440526,-121.6786791,0
4.059,-0.15,-0.3675,-0.0313,2.5574,3.9086,-5.1598,0.3483,1.8706,1.8919,851.4448,32.4,39.42,-22.38,109.096,67.365,101.798,49.17440526,-121.6786791,0
4.078,-0.4471,-0.9753,0.2921,2.5574,3.9086,-5.1598,0.3483,1.8706,1.8919,851.4448,32.4,39.42,-22.38,176.286,61.296,56.839,49.17440526,-121.6786791,0
4.089,-0.4471,-0.9753,0.2921,2.5574,3.9086,-5.1598,0.3483,1.8706,1.8919,851.4448,32.82,38.94,-22.5,176.878,61.296,56.839,49.17440526,-121.6786791,0
4.092,-0.4471,-0.9753,0.2921,2.5574,3.9086,-5.1598,0.2067,-0.7137,-0.3888,851.4448,32.82,38.94,-22.5,176.878,61.296,56.839,49.17440526,-121.6786791,0
4.12,-0.4471,-0.9753,0.2921,-0.863,-1.922,-2.1847,0.2067,-0.7137,-0.3888,851.4448,32.82,38.94,-22.5,176.878,61.296,56.839,49.17440526,-121.6786791,0
4.14,-0.4671,-0.6885,0.3796,-0.863,-1.922,-2.1847,0.2067,-0.7137,-0.3888,851.4448,32.82,38.94,-22.5,-142.58,48.84,50.902,49.17440526,-121.6786791,0
4.148,-0.4671,-0.6885,0.3796,-0.863,-1.922,-2.1847,0.2067,-0.7137,-0.3888,851.4448,33.3,38.28,-22.74,-146.464,48.84,50.902,49.17440526,-121.6786791,0
4.152,-0.4671,-0.6885,0.3796,-0.863,-1.922,-2.1847,-0.032,-0.2312,-0.9939,851.4448,33.3,38.28,-22.74,-146.464,48.84,50.902,49.17440526,-121.6786791,0
4.177,-0.4671,-0.6885,0.3796,-1.5461,1.0677,-1.3696,-0.032,-0.2312,-0.9939,851.4448,33.3,38.28,-22.74,-146.464,48.84,50.902,49.17440526,-121.6786791,0
4.196,-0.3327,-1.5045,0.7563,-1.5461,1.0677,-1.3696,-0.032,-0.2312,-0.9939,851.4448,33.3,38.28,-22.74,-118.487,61.224,23.747,49.17440526,-121.6786791,0
4.198,-0.3327,-1.5045,0.7563,-1.5461,1.0677,-1.3696,-0.032,-0.2312,-0.9939,851.4448,33.84,37.62,-23.04,-119.59,61.224,23.747,49.17440526,-121.6786791,0
4.2,-0.3327,-1.5045,0.7563,-1.5461,1.0677,-1.3696,-0.2823,0.2791,1.0067,851.4448,33.84,37.62,-23.04,-119.59,61.224,23.747,49.17440526,-121.6786791,0
4.215,-0.3327,-1.5045,0.7563,-1.5461,1.0677,-1.3696,-0.2823,0.2791,1.0067,851.6467,33.84,37.62,-23.04,-119.59,61.224,23.747,49.17440526,-121.6786791,0
4.217,-0.3327,-1.5045,0.7563,-1.5461,1.0677,-1.3696,-0.2823,0.2791,1.0067,851.6467,33.84,37.62,-23.04,-119.59,61.224,23.747,49.17440526,-121.6786791,0
4.237,-0.3327,-1.5045,0.7563,0.4859,-7.0122,2.6843,-0.2823,0.2791,1.0067,851.6467,33.84,37.62,-23.04,-119.59,61.224,23.747,49.17440526,-121.6786791,0
4.257,-0.1612,-0.8121,1.4457,0.4859,-7.0122,2.6843,-0.2823,0.2791,1.0067,851.6467,33.84,37.62,-23.04,-57.423,29.174,6.364,49.17440526,-121.6786791,0
4.26,-0.1612,-0.8121,1.4457,0.4859,-7.0122,2.6843,-0.2823,0.2791,1.0067,851.6467,34.32,36.96,-23.28,-58.74,29.174,6.364,49.17440526,-121.6786791,0
4.264,-0.1612,-0.8121,1.4457,0.4859,-7.0122,2.6843,0.7265,5.0802,1.4019,851.6467,34.32,36.96,-23.28,-58.74,29.174,6.364,49.17440526,-121.6786791,0
4.302,-0.1612,-0.8121,1.4457,4.1812,-0.7834,10.7789,0.7265,5.0802,1.4019,851.6467,34.32,36.96,-23.28,-58.74,29.174,6.364,49.17440526,-121.6786791,0
4.322,-0.5893,-0.0098,-0.0973,4.1812,-0.7834,10.7789,0.7265,5.0802,1.4019,851.6467,34.32,36.96,-23.28,38.072,0.943,99.376,49.17440526,-121.6786791,0
4.333,-0.5893,-0.0098,-0.0973,4.1812,-0.7834,10.7789,0.7265,5.0802,1.4019,851.6467,35.1,36.24,-23.4,38.877,0.943,99.376,49.17440526,-121.6786791,0
4.341,-0.5893,-0.0098,-0.0973,4.1812,-0.7834,10.7789,0.4762,-0.3483,-0.5348,851.6467,35.1,36.24,-23.4,38.877,0.943,99.376,49.17440526,-121.6786791,0
4.368,-0.5893,-0.0098,-0.0973,-0.1394,6.9974,-4.7073,0.4762,-0.3483,-0.5348,851.6467,35.1,36.24,-23.4,38.877,0.943,99.376,49.17440526,-121.6786791,0
4.377,-0.7979,-0.8424,0.7231,-0.1394,6.9974,-4.7073,0.4762,-0.3483,-0.5348,851.6467,35.1,36.24,-23.4,-65.538,38.038,47.816,49.17440526,-121.6786791,0
4.379,-0.7979,-0.8424,0.7231,-0.1394,6.9974,-4.7073,0.4762,-0.3483,-0.5348,851.6467,36.12,35.52,-23.34,-75.296,38.038,47.816,49.17440526,-121.6786791,0
4.381,-0.7979,-0.8424,0.7231,-0.1394,6.9974,-4.7073,-0.1087,-0.9651,-0.5337,851.6467,36.12,35.52,-23.34,-75.296,38.038,47.816,49.17440526,-121.6786791,0
4.395,-0.7979,-0.8424,0.7231,-0.1394,6.9974,-4.7073,-0.1087,-0.9651,-0.5337,851.3857,36.12,35.52,-23.34,-75.296,38.038,47.816,49.17440526,-121.6786791,0
4.397,-0.7979,-0.8424,0.7231,-0.1394,6.9974,-4.7073,-0.1087,-0.9651,-0.5337,851.3857,36.12,35.52,-23.34,-75.296,38.038,47.816,49.17440526,-121.6786791,0
4.418,-0.7979,-0.8424,0.7231,-2.5641,-1.0106,3.079,-0.1087,-0.9651,-0.5337,851.3857,36.12,35.52,-23.34,-75.296,38.038,47.816,49.17440526,-121.6786791,0
4.44,-0.4881,-0.6641,0.4929,-2.5641,-1.0106,3.079,-0.1087,-0.9651,-0.5337,851.3857,36.12,35.52,-23.34,-110.108,43.749,44.718,49.17440526,-121.6786791,0
4.451,-0.4881,-0.6641,0.4929,-2.5641,-1.0106,3.079,-0.1087,-0.9651,-0.5337,851.3857,37.14,34.8,-23.22,-113.359,43.749,44.718,49.17440526,-121.6786791,0
4.46,-0.4881,-0.6641,0.4929,-2.5641,-1.0106,3.079,0.3185,0.4346,0.1566,851.3857,37.14,34.8,-23.22,-113.359,43.749,44.718,49.17440526,-121.6786791,0
4.475,-0.4881,-0.6641,0.4929,0.6469,0.5952,0.8032,0.3185,0.4346,0.1566,851.3857,37.14,34.8,-23.22,-113.359,43.749,44.718,49.17440526,-121.6786791,0
4.495,0.0992,-0.3729,0.233,0.6469,0.5952,0.8032,0.3185,0.4346,0.1566,851.3857,37.14,34.8,-23.22,-72.176,55.817,-23.059,49.17440526,-121.6786791,0
4.497,0.0992,-0.3729,0.233,0.6469,0.5952,0.8032,0.3185,0.4346,0.1566,851.3857,38.22,34.02,-23.16,-72.593,55.817,-23.059,49.17440526,-121.6786791,0
4.498,0.0992,-0.3729,0.233,0.6469,0.5952,0.8032,0.6029,0.3111,0.2088,851.3857,38.22,34.02,-23.16,-72.593,55.817,-23.059,49.17440526,-121.6786791,0
4.535,0.0992,-0.3729,0.233,6.4803,3.3713,-1.7751,0.6029,0.3111,0.2088,851.3857,38.22,34.02,-23.16,-72.593,55.817,-23.059,49.17440526,-121.6786791,0
4.557,-0.5218,-0.7662,1.479,6.4803,3.3713,-1.7751,0.6029,0.3111,0.2088,851.3857,38.22,34.02,-23.16,-61.481,26.038,19.435,49.17440526,-121.6786791,0
4.561,-0.5218,-0.7662,1.479,6.4803,3.3713,-1.7751,0.6029,0.3111,0.2088,851.3857,39.36,33.36,-23.04,-63.494,26.038,19.435,49.17440526,-121.6786791,0
4.569,-0.5218,-0.7662,1.479,6.4803,3.3713,-1.7751,1.2304,0.032,-2.1295,851.3857,39.36,33.36,-23.04,-63.494,26.038,19.435,49.17440526,-121.6786791,0
4.581,-0.5218,-0.7662,1.479,6.4803,3.3713,-1.7751,1.2304,0.032,-2.1295,851.467,39.36,33.36,-23.04,-63.494,26.038,19.435,49.17440526,-121.6786791,0
4.588,-0.5218,-0.7662,1.479,6.4803,3.3713,-1.7751,1.2304,0.032,-2.1295,851.467,39.36,33.36,-23.04,-63.494,26.038,19.435,49.17440526,-121.6786791,0
4.595,-0.5218,-0.7662,1.479,-0.1486,-0.2845,10.098,1.2304,0.032,-2.1295,851.467,39.36,33.36,-23.04,-63.494,26.038,19.435,49.17440526,-121.6786791,0
4.616,-0.3542,-0.9817,1.0509,-0.1486,-0.2845,10.098,1.2304,0.032,-2.1295,851.467,39.36,33.36,-23.04,-85.843,41.514,18.628,49.17440526,-121.6786791,0
4.617,-0.3542,-0.9817,1.0509,-0.1486,-0.2845,10.098,1.2304,0.032,-2.1295,851.467,40.5,32.7,-22.86,-87.139,41.514,18.628,49.17440526,-121.6786791,0
4.619,-0.3542,-0.9817,1.0509,-0.1486,-0.2845,10.098,-0.2461,0.9918,-0.3792,851.467,40.5,32.7,-22.86,-87.139,41.514,18.628,49.17440526,-121.6786791,0
4.662,-0.3542,-0.9817,1.0509,1.5218,-2.3857,5.9525,-0.2461,0.9918,-0.3792,851.467,40.5,32.7,-22.86,-87.139,41.514,18.628,49.17440526,-121.6786791,0
4.681,-0.3342,-0.4061,0.4426,1.5218,-2.3857,5.9525,-0.2461,0.9918,-0.3792,851.467,40.5,32.7,-22.86,-86.334,36.212,37.055,49.17440526,-121.6786791,0
4.692,-0.3342,-0.4061,0.4426,1.5218,-2.3857,5.9525,-0.2461,0.9918,-0.3792,851.467,41.58,32.22,-22.5,-88.289,36.212,37.055,49.17440526,-121.6786791,0
4.699,-0.3342,-0.4061,0.4426,1.5218,-2.3857,5.9525,0.0117,1.3348,-0.3441,851.467,41.58,32.22,-22.5,-88.289,36.212,37.055,49.17440526,-121.6786791,0
4.715,-0.3342,-0.4061,0.4426,2.0093,3.3747,0.5754,0.0117,1.3348,-0.3441,851.467,41.58,32.22,-22.5,-88.289,36.212,37.055,49.17440526,-121.6786791,0
4.735,-0.322,-0.3577,0.6977,2.0093,3.3747,0.5754,0.0117,1.3348,-0.3441,851.467,41.58,32.22,-22.5,-64.957,24.964,24.775,49.17440526,-121.6786791,0
4.737,-0.322,-0.3577,0.6977,2.0093,3.3747,0.5754,0.0117,1.3348,-0.3441,851.467,42.72,31.74,-22.08,-66.638,24.964,24.775,49.17440526,-121.6786791,0
4.739,-0.322,-0.3577,0.6977,2.0093,3.3747,0.5754,1.077,0.995,-1.4072,851.467,42.72,31.74,-22.08,-66.638,24.964,24.775,49.17440526,-121.6786791,0
4.755,-0.322,-0.3577,0.6977,2.0093,3.3747,0.5754,1.077,0.995,-1.4072,851.5935,42.72,31.74,-22.08,-66.638,24.964,24.775,49.17440526,-121.6786791,0
4.756,-0.322,-0.3577,0.6977,2.0093,3.3747,0.5754,1.077,0.995,-1.4072,851.5935,42.72,31.74,-22.08,-66.638,24.964,24.775,49.17440526,-121.6786791,0
4.779,-0.322,-0.3577,0.6977,1.331,3.981,2.3661,1.077,0.995,-1.4072,851.5935,42.72,31.74,-22.08,-66.638,24.964,24.775,49.17440526,-121.6786791,0
4.797,-0.1187,-1.0364,0.3175,1.331,3.981,2.3661,1.077,0.995,-1.4072,851.5935,42.72,31.74,-22.08,-126.641,71.887,20.502,49.17440526,-121.6786791,0
4.8,-0.1187,-1.0364,0.3175,1.331,3.981,2.3661,1.077,0.995,-1.4072,851.5935,43.8,31.98,-21.72,-125.655,71.887,20.502,49.17440526,-121.6786791,0
4.804,-0.1187,-1.0364,0.3175,1.331,3.981,2.3661,0.9033,0.0575,-1.1153,851.5935,43.8,31.98,-21.72,-125.655,71.887,20.502,49.17440526,-121.6786791,0
4.837,-0.1187,-1.0364,0.3175,2.6611,-2.4484,-1.5916,0.9033,0.0575,-1.1153,851.5935,43.8,31.98,-21.72,-125.655,71.887,20.502,49.17440526,-121.6786791,0
4.86,-0.5033,-1.0476,0.4871,2.6611,-2.4484,-1.5916,0.9033,0.0575,-1.1153,851.5935,43.8,31.98,-21.72,-144.661,56.236,45.936,49.17440526,-121.6786791,0
4.868,-0.5033,-1.0476,0.4871,2.6611,-2.4484,-1.5916,0.9033,0.0575,-1.1153,851.5935,44.52,32.58,-21.9,-144.251,56.236,45.936,49.17440526,-121.6786791,0
4.872,-0.5033,-1.0476,0.4871,2.6611,-2.4484,-1.5916,-0.147,0.2407,-0.4858,851.5935,44.52,32.58,-21.9,-144.251,56.236,45.936,49.17440526,-121.6786791,0
4.897,-0.5033,-1.0476,0.4871,-1.3804,-2.3835,0.1466,-0.147,0.2407,-0.4858,851.5935,44.52,32.58,-21.9,-144.251,56.236,45.936,49.17440526,-121.6786791,0
4.917,-0.3797,-0.838,0.6273,-1.3804,-2.3835,0.1466,-0.147,0.2407,-0.4858,851.5935,44.52,32.58,-21.9,-110.488,48.815,31.182,49.17440526,-121.6786791,0
4.92,-0.3797,-0.838,0.6273,-1.3804,-2.3835,0.1466,-0.147,0.2407,-0.4858,851.5935,44.4,33.78,-23.16,-110.982,48.815,31.182,49.17440526,-121.6786791,0
4.924,-0.3797,-0.838,0.6273,-1.3804,-2.3835,0.1466,-0.5965,0.9619,-0.2748,851.5935,44.4,33.78,-23.16,-110.982,48.815,31.182,49.17440526,-121.6786791,0
4.936,-0.3797,-0.838,0.6273,-1.3804,-2.3835,0.1466,-0.5965,0.9619,-0.2748,851.6362,44.4,33.78,-23.16,-110.982,48.815,31.182,49.17440526,-121.6786791,0
4.939,-0.3797,-0.838,0.6273,-1.3804,-2.3835,0.1466,-0.5965,0.9619,-0.2748,851.6362,44.4,33.78,-23.16,-110.982,48.815,31.182,49.17440526,-121.6786791,0
4.956,-0.3797,-0.838,0.6273,0.1008,-0.1955,1.9894,-0.5965,0.9619,-0.2748,851.6362,44.4,33.78,-23.16,-110.982,48.815,31.182,49.17440526,-121.6786791,0
4.987,-0.2521,-0.8405,0.2775,0.1008,-0.1955,1.9894,-0.5965,0.9619,-0.2748,851.6362,44.4,33.78,-23.16,-149.343,65.96,42.26,49.17440526,-121.6786791,0
4.991,-0.2521,-0.8405,0.2775,0.1008,-0.1955,1.9894,-0.5965,0.9619,-0.2748,851.6362,44.1,35.1,-24.48,-151.124,65.96,42.26,49.17440526,-121.6786791,0
4.994,-0.2521,-0.8405,0.2775,0.1008,-0.1955,1.9894,-0.3494,0.1481,0.2365,851.6362,44.1,35.1,-24.48,-151.124,65.96,42.26,49.17440526,-121.6786791,0
5.015,-0.2521,-0.8405,0.2775,1.4621,-0.3233,-1.5329,-0.3494,0.1481,0.2365,851.6362,44.1,35.1,-24.48,-151.124,65.96,42.26,49.17440526,-121.6786791,0
5.035,-0.4559,-0.5869,0.7006,1.4621,-0.3233,-1.5329,-0.3494,0.1481,0.2365,851.6362,44.1,35.1,-24.48,-82.485,35.074,33.051,49.17440526,-121.6786791,0
5.037,-0.4559,-0.5869,0.7006,1.4621,-0.3233,-1.5329,-0.3494,0.1481,0.2365,851.6362,43.32,36.6,-25.92,-80.041,35.074,33.051,49.17440526,-121.6786791,0
5.04,-0.4559,-0.5869,0.7006,1.4621,-0.3233,-1.5329,-0.0682,-0.0511,0.0522,851.6362,43.32,36.6,-25.92,-80.041,35.074,33.051,49.17440526,-121.6786791,0
5.08,-0.4559,-0.5869,0.7006,-0.6253,2.1734,2.5529,-0.0682,-0.0511,0.0522,851.6362,43.32,36.6,-25.92,-80.041,35.074,33.051,49.17440526,-121.6786791,0
5.1,-0.279,-0.797,0.4969,-0.6253,2.1734,2.5529,-0.0682,-0.0511,0.0522,851.6362,43.32,36.6,-25.92,-119.778,54.436,29.315,49.17440526,-121.6786791,0
5.109,-0.279,-0.797,0.4969,-0.6253,2.1734,2.5529,-0.0682,-0.0511,0.0522,851.6362,42.48,38.22,-27.42,-120.91,54.436,29.315,49.17440526,-121.6786791,0
5.118,-0.279,-0.797,0.4969,-0.6253,2.1734,2.5529,-0.1182,-0.2226,-0.3398,851.6362,42.48,38.22,-27.42,-120.91,54.436,29.315,49.17440526,-121.6786791,0
5.127,-0.279,-0.797,0.4969,-0.6253,2.1734,2.5529,-0.1182,-0.2226,-0.3398,851.6404,42.48,38.22,-27.42,-120.91,54.436,29.315,49.17440526,-121.6786791,0
5.129,-0.279,-0.797,0.4969,-0.6253,2.1734,2.5529,-0.1182,-0.2226,-0.3398,851.6404,42.48,38.22,-27.42,-120.91,54.436,29.315,49.17440526,-121.6786791,0
5.134,-0.279,-0.797,0.4969,0.8589,0.1246,0.3642,-0.1182,-0.2226,-0.3398,851.6404,42.48,38.22,-27.42,-120.91,54.436,29.315,49.17440526,-121.6786791,0
5.154,-0.3572,-0.8156,0.5125,0.8589,0.1246,0.3642,-0.1182,-0.2226,-0.3398,851.6404,42.48,38.22,-27.42,-125.943,52.549,34.874,49.17440526,-121.6786791,0
5.156,-0.3572,-0.8156,0.5125,0.8589,0.1246,0.3642,-0.1182,-0.2226,-0.3398,851.6404,41.58,39.84,-28.92,-127.493,52.549,34.874,49.17440526,-121.6786791,0
5.157,-0.3572,-0.8156,0.5125,0.8589,0.1246,0.3642,0.0735,-0.0959,-0.245,851.6404,41.58,39.84,-28.92,-127.493,52.549,34.874,49.17440526,-121.6786791,0
5.199,-0.3572,-0.8156,0.5125,-0.0949,-0.0322,0.4172,0.0735,-0.0959,-0.245,851.6404,41.58,39.84,-28.92,-127.493,52.549,34.874,49.17440526,-121.6786791,0
5.22,-0.2981,-0.8581,0.5008,-0.0949,-0.0322,0.4172,0.0735,-0.0959,-0.245,851.6404,41.58,39.84,-28.92,-126.981,55.818,30.761,49.17440526,-121.6786791,0
5.232,-0.2981,-0.8581,0.5008,-0.0949,-0.0322,0.4172,0.0735,-0.0959,-0.245,851.6404,40.68,41.46,-30.42,-128.704,55.818,30.761,49.17440526,-121.6786791,0
5.238,-0.2981,-0.8581,0.5008,-0.0949,-0.0322,0.4172,-0.1545,-0.2706,0.0597,851.6404,40.68,41.46,-30.42,-128.704,55.818,30.761,49.17440526,-121.6786791,0
5.254,-0.2981,-0.8581,0.5008,0.4262,-0.3948,0.3535,-0.1545,-0.2706,0.0597,851.6404,40.68,41.46,-30.42,-128.704,55.818,30.761,49.17440526,-121.6786791,0
5.274,-0.1945,-0.7325,0.5061,0.4262,-0.3948,0.3535,-0.1545,-0.2706,0.0597,851.6404,40.68,41.46,-30.42,-110.061,53.49,21.018,49.17440526,-121.6786791,0
5.276,-0.1945,-0.7325,0.5061,0.4262,-0.3948,0.3535,-0.1545,-0.2706,0.0597,851.6404,39.54,43.2,-32.04,-110.956,53.49,21.018,49.17440526,-121.6786791,0
5.278,-0.1945,-0.7325,0.5061,0.4262,-0.3948,0.3535,0.1161,-0.2184,-0.1289,851.6404,39.54,43.2,-32.04,-110.956,53.49,21.018,49.17440526,-121.6786791,0
5.293,-0.1945,-0.7325,0.5061,0.4262,-0.3948,0.3535,0.1161,-0.2184,-0.1289,851.636,39.54,43.2,-32.04,-110.956,53.49,21.018,49.17440526,-121.6786791,0
5.295,-0.1945,-0.7325,0.5061,0.4262,-0.3948,0.3535,0.1161,-0.2184,-0.1289,851.636,39.54,43.2,-32.04,-110.956,53.49,21.018,49.17440526,-121.6786791,0
5.315,-0.1945,-0.7325,0.5061,1.2138,0.7794,0.1527,0.1161,-0.2184,-0.1289,851.636,39.54,43.2,-32.04,-110.956,53.49,21.018,49.17440526,-121.6786791,0
5.335,-0.1608,-0.7125,0.4905,1.2138,0.7794,0.1527,0.1161,-0.2184,-0.1289,851.636,39.54,43.2,-32.04,-108.591,54.077,18.146,49.17440526,-121.6786791,0
5.341,-0.1608,-0.7125,0.4905,1.2138,0.7794,0.1527,0.1161,-0.2184,-0.1289,851.636,38.04,44.94,-33.9,-110,54.077,18.146,49.17440526,-121.6786791,0
5.348,-0.1608,-0.7125,0.4905,1.2138,0.7794,0.1527,0.2237,-0.049,-0.4772,851.636,38.04,44.94,-33.9,-110,54.077,18.146,49.17440526,-121.6786791,0
5.373,-0.1608,-0.7125,0.4905,1.2165,1.0059,-0.1496,0.2237,-0.049,-0.4772,851.636,38.04,44.94,-33.9,-110,54.077,18.146,49.17440526,-121.6786791,0
5.393,-0.2292,-0.7296,0.4715,1.2165,1.0059,-0.1496,0.2237,-0.049,-0.4772,851.636,38.04,44.94,-33.9,-121.84,54.302,25.923,49.17440526,-121.6786791,0
5.395,-0.2292,-0.7296,0.4715,1.2165,1.0059,-0.1496,0.2237,-0.049,-0.4772,851.636,36.42,46.68,-35.88,-124.878,54.302,25.923,49.17440526,-121.6786791,0
5.397,-0.2292,-0.7296,0.4715,1.2165,1.0059,-0.1496,0.2173,0.0501,-0.4783,851.636,36.42,46.68,-35.88,-124.878,54.302,25.923,49.17440526,-121.6786791,0
5.434,-0.2292,-0.7296,0.4715,0.2922,0.8182,-0.5025,0.2173,0.0501,-0.4783,851.636,36.42,46.68,-35.88,-124.878,54.302,25.923,49.17440526,-121.6786791,0
5.454,-0.3093,-0.7867,0.5311,0.2922,0.8182,-0.5025,0.2173,0.0501,-0.4783,851.636,36.42,46.68,-35.88,-127.091,52.004,30.217,49.17440526,-121.6786791,0
5.457,-0.3093,-0.7867,0.5311,0.2922,0.8182,-0.5025,0.2173,0.0501,-0.4783,851.636,34.74,48.42,-37.86,-131.649,52.004,30.217,49.17440526,-121.6786791,0
5.461,-0.3093,-0.7867,0.5311,0.2922,0.8182,-0.5025,-0.1832,-0.0895,-0.0256,851.636,34.74,48.42,-37.86,-131.649,52.004,30.217,49.17440526,-121.6786791,0
5.472,-0.3093,-0.7867,0.5311,0.2922,0.8182,-0.5025,-0.1832,-0.0895,-0.0256,851.6113,34.74,48.42,-37.86,-131.649,52.004,30.217,49.17440526,-121.6786791,0
5.474,-0.3093,-0.7867,0.5311,0.2922,0.8182,-0.5025,-0.1832,-0.0895,-0.0256,851.6113,34.74,48.42,-37.86,-131.649,52.004,30.217,49.17440526,-121.6786791,0
5.493,-0.3093,-0.7867,0.5311,-0.4755,0.2937,0.1466,-0.1832,-0.0895,-0.0256,851.6113,34.74,48.42,-37.86,-131.649,52.004,30.217,49.17440526,-121.6786791,0
5.516,-0.3337,-0.7892,0.556,-0.4755,0.2937,0.1466,-0.1832,-0.0895,-0.0256,851.6113,34.74,48.42,-37.86,-128.364,50.591,30.974,49.17440526,-121.6786791,0
5.521,-0.3337,-0.7892,0.556,-0.4755,0.2937,0.1466,-0.1832,-0.0895,-0.0256,851.6113,32.88,50.1,-39.84,-134.896,50.591,30.974,49.17440526,-121.6786791,0
5.533,-0.3337,-0.7892,0.556,-0.4755,0.2937,0.1466,-0.2099,0.2109,0.1555,851.6113,32.88,50.1,-39.84,-134.896,50.591,30.974,49.17440526,-121.6786791,0
5.555,-0.3337,-0.7892,0.556,-0.5356,0.3047,0.5422,-0.2099,0.2109,0.1555,851.6113,32.88,50.1,-39.84,-134.896,50.591,30.974,49.17440526,-121.6786791,0
5.574,-0.2419,-0.7858,0.555,-0.5356,0.3047,0.5422,-0.2099,0.2109,0.1555,851.6113,32.88,50.1,-39.84,-121.619,52.386,23.547,49.17440526,-121.6786791,0
5.578,-0.2419,-0.7858,0.555,-0.5356,0.3047,0.5422,-0.2099,0.2109,0.1555,851.6113,30.9,51.84,-41.94,-126.602,52.386,23.547,49.17440526,-121.6786791,0
5.581,-0.2419,-0.7858,0.555,-0.5356,0.3047,0.5422,-0.2866,0.1023,0.3984,851.6113,30.9,51.84,-41.94,-126.602,52.386,23.547,49.17440526,-121.6786791,0
5.615,-0.2419,-0.7858,0.555,0.5724,0.3307,0.6419,-0.2866,0.1023,0.3984,851.6113,30.9,51.84,-41.94,-126.602,52.386,23.547,49.17440526,-121.6786791,0
5.635,-0.259,-0.8454,0.5184,0.5724,0.3307,0.6419,-0.2866,0.1023,0.3984,851.6113,30.9,51.84,-41.94,-145.666,55.572,26.546,49.17440526,-121.6786791,0
5.638,-0.259,-0.8454,0.5184,0.5724,0.3307,0.6419,-0.2866,0.1023,0.3984,851.6113,28.86,53.58,-43.98,-154.29,55.572,26.546,49.17440526,-121.6786791,0
5.642,-0.259,-0.8454,0.5184,0.5724,0.3307,0.6419,-0.0277,0.0884,1.0237,851.6113,28.86,53.58,-43.98,-154.29,55.572,26.546,49.17440526,-121.6786791,0
5.654,-0.259,-0.8454,0.5184,0.5724,0.3307,0.6419,-0.0277,0.0884,1.0237,851.5513,28.86,53.58,-43.98,-154.29,55.572,26.546,49.17440526,-121.6786791,0
5.658,-0.259,-0.8454,0.5184,0.5724,0.3307,0.6419,-0.0277,0.0884,1.0237,851.5513,28.86,53.58,-43.98,-154.29,55.572,26.546,49.17440526,-121.6786791,0
5.674,-0.259,-0.8454,0.5184,0.8331,-0.4192,0.29,-0.0277,0.0884,1.0237,851.5513,28.86,53.58,-43.98,-154.29,55.572,26.546,49.17440526,-121.6786791,0
5.693,-0.2546,-0.8385,0.5916,0.8331,-0.4192,0.29,-0.0277,0.0884,1.0237,851.5513,28.86,53.58,-43.98,-132.776,52.471,23.281,49.17440526,-121.6786791,0
5.697,-0.2546,-0.8385,0.5916,0.8331,-0.4192,0.29,-0.0277,0.0884,1.0237,851.5513,26.88,55.2,-46.14,-142.496,52.471,23.281,49.17440526,-121.6786791,0
5.699,-0.2546,-0.8385,0.5916,0.8331,-0.4192,0.29,0.2024,0.1502,0.2791,851.5513,26.88,55.2,-46.14,-142.496,52.471,23.281,49.17440526,-121.6786791,0
5.734,-0.2546,-0.8385,0.5916,1.0026,-0.4299,0.972,0.2024,0.1502,0.2791,851.5513,26.88,55.2,-46.14,-142.496,52.471,23.281,49.17440526,-121.6786791,0
5.756,-0.1749,-0.8737,0.5091,1.0026,-0.4299,0.972,0.2024,0.1502,0.2791,851.5513,26.88,55.2,-46.14,-146.297,58.363,18.963,49.17440526,-121.6786791,0
5.76,-0.1749,-0.8737,0.5091,1.0026,-0.4299,0.972,0.2024,0.1502,0.2791,851.5513,24.96,56.28,-48.3,-154.08,58.363,18.963,49.17440526,-121.6786791,0
5.769,-0.1749,-0.8737,0.5091,1.0026,-0.4299,0.972,-0.0884,0.3004,0.4027,851.5513,24.96,56.28,-48.3,-154.08,58.363,18.963,49.17440526,-121.6786791,0
5.799,-0.1749,-0.8737,0.5091,1.9207,-0.8058,0.2146,-0.0884,0.3004,0.4027,851.5513,24.96,56.28,-48.3,-154.08,58.363,18.963,49.17440526,-121.6786791,0
5.816,-0.2868,-0.7379,0.4519,1.9207,-0.8058,0.2146,-0.0884,0.3004,0.4027,851.5513,24.96,56.28,-48.3,155.981,54.043,32.402,49.17440526,-121.6786791,0
5.821,-0.2868,-0.7379,0.4519,1.9207,-0.8058,0.2146,-0.0884,0.3004,0.4027,851.5513,23.46,56.88,-49.98,147.469,54.043,32.402,49.17440526,-121.6786791,0
5.828,-0.2868,-0.7379,0.4519,1.9207,-0.8058,0.2146,-0.3015,0.1087,-0.0639,851.5513,23.46,56.88,-49.98,147.469,54.043,32.402,49.17440526,-121.6786791,0
5.838,-0.2868,-0.7379,0.4519,1.9207,-0.8058,0.2146,-0.3015,0.1087,-0.0639,851.5674,23.46,56.88,-49.98,147.469,54.043,32.402,49.17440526,-121.6786791,0
5.84,-0.2868,-0.7379,0.4519,1.9207,-0.8058,0.2146,-0.3015,0.1087,-0.0639,851.5674,23.46,56.88,-49.98,147.469,54.043,32.402,49.17440526,-121.6786791,0
5.852,-0.2868,-0.7379,0.4519,0.7064,0.6331,-0.2568,-0.3015,0.1087,-0.0639,851.5674,23.46,56.88,-49.98,147.469,54.043,32.402,49.17440526,-121.6786791,0
5.872,-0.4813,-0.7564,0.4074,0.7064,0.6331,-0.2568,-0.3015,0.1087,-0.0639,851.5674,23.46,56.88,-49.98,95.31,50.184,49.75,49.17440526,-121.6786791,0
5.874,-0.4813,-0.7564,0.4074,0.7064,0.6331,-0.2568,-0.3015,0.1087,-0.0639,851.5674,22.74,56.94,-50.58,94.719,50.184,49.75,49.17440526,-121.6786791,0
5.876,-0.4813,-0.7564,0.4074,0.7064,0.6331,-0.2568,0.0554,0.1917,-0.2599,851.5674,22.74,56.94,-50.58,94.719,50.184,49.75,49.17440526,-121.6786791,0
5.918,-0.4813,-0.7564,0.4074,-1.1888,0.492,-0.6153,0.0554,0.1917,-0.2599,851.5674,22.74,56.94,-50.58,94.719,50.184,49.75,49.17440526,-121.6786791,0
5.935,-0.3093,-0.6871,0.5995,-1.1888,0.492,-0.6153,0.0554,0.1917,-0.2599,851.5674,22.74,56.94,-50.58,82.803,45.526,27.291,49.17440526,-121.6786791,0
5.94,-0.3093,-0.6871,0.5995,-1.1888,0.492,-0.6153,0.0554,0.1917,-0.2599,851.5674,22.2,56.82,-51.06,87.437,45.526,27.291,49.17440526,-121.6786791,0
5.944,-0.3093,-0.6871,0.5995,-1.1888,0.492,-0.6153,-0.1481,0.0096,-0.2173,851.5674,22.2,56.82,-51.06,87.437,45.526,27.291,49.17440526,-121.6786791,0
5.972,-0.3093,-0.6871,0.5995,0.434,1.1678,1.2122,-0.1481,0.0096,-0.2173,851.5674,22.2,56.82,-51.06,87.437,45.526,27.291,49.17440526,-121.6786791,0
5.998,-0.3078,-0.8278,0.5467,0.434,1.1678,1.2122,-0.1481,0.0096,-0.2173,851.5674,22.2,56.82,-51.06,149.826,52.84,29.382,49.17440526,-121.6786791,0
6.006,-0.3078,-0.8278,0.5467,0.434,1.1678,1.2122,-0.1481,0.0096,-0.2173,851.5674,21.66,56.7,-51.6,147.344,52.84,29.382,49.17440526,-121.6786791,0
6.012,-0.3078,-0.8278,0.5467,0.434,1.1678,1.2122,-0.1704,-0.1364,-0.0405,851.5674,21.66,56.7,-51.6,147.344,52.84,29.382,49.17440526,-121.6786791,0
6.018,-0.3078,-0.8278,0.5467,0.434,1.1678,1.2122,-0.1704,-0.1364,-0.0405,851.6228,21.66,56.7,-51.6,147.344,52.84,29.382,49.17440526,-121.6786791,0
6.023,-0.3078,-0.8278,0.5467,0.434,1.1678,1.2122,-0.1704,-0.1364,-0.0405,851.6228,21.66,56.7,-51.6,147.344,52.84,29.382,49.17440526,-121.6786791,0
6.031,-0.3078,-0.8278,0.5467,0.3746,-0.1805,0.6931,-0.1704,-0.1364,-0.0405,851.6228,21.66,56.7,-51.6,147.344,52.84,29.382,49.17440526,-121.6786791,0
6.052,-0.4422,-0.8771,0.6361,0.3746,-0.1805,0.6931,-0.1704,-0.1364,-0.0405,851.6228,21.66,56.7,-51.6,106.638,48.548,34.805,49.17440526,-121.6786791,0
6.054,-0.4422,-0.8771,0.6361,0.3746,-0.1805,0.6931,-0.1704,-0.1364,-0.0405,851.6228,21.12,56.52,-52.14,106.621,48.548,34.805,49.17440526,-121.6786791,0
6.055,-0.4422,-0.8771,0.6361,0.3746,-0.1805,0.6931,0.0192,-0.2439,0.0586,851.6228,21.12,56.52,-52.14,106.621,48.548,34.805,49.17440526,-121.6786791,0
6.098,-0.4422,-0.8771,0.6361,-0.8707,-0.7049,1.5527,0.0192,-0.2439,0.0586,851.6228,21.12,56.52,-52.14,106.621,48.548,34.805,49.17440526,-121.6786791,0
6.117,-0.3831,-0.797,0.4719,-0.8707,-0.7049,1.5527,0.0192,-0.2439,0.0586,851.6228,21.12,56.52,-52.14,117.302,52.668,39.066,49.17440526,-121.6786791,0
6.126,-0.3831,-0.797,0.4719,-0.8707,-0.7049,1.5527,0.0192,-0.2439,0.0586,851.6228,20.52,56.34,-52.62,116.53,52.668,39.066,49.17440526,-121.6786791,0
6.132,-0.3831,-0.797,0.4719,-0.8707,-0.7049,1.5527,0.1342,0.2876,-0.0245,851.6228,20.52,56.34,-52.62,116.53,52.668,39.066,49.17440526,-121.6786791,0
6.152,-0.3831,-0.797,0.4719,-0.2143,0.0378,-0.0702,0.1342,0.2876,-0.0245,851.6228,20.52,56.34,-52.62,116.53,52.668,39.066,49.17440526,-121.6786791,0
6.173,-0.3982,-0.7095,0.4675,-0.2143,0.0378,-0.0702,0.1342,0.2876,-0.0245,851.6228,20.52,56.34,-52.62,100.645,49.122,40.422,49.17440526,-121.6786791,0
6.174,-0.3982,-0.7095,0.4675,-0.2143,0.0378,-0.0702,0.1342,0.2876,-0.0245,851.6228,19.98,56.1,-53.1,100.739,49.122,40.422,49.17440526,-121.6786791,0
6.177,-0.3982,-0.7095,0.4675,-0.2143,0.0378,-0.0702,-0.049,0.1119,0.049,851.6228,19.98,56.1,-53.1,100.739,49.122,40.422,49.17440526,-121.6786791,0
6.194,-0.3982,-0.7095,0.4675,-0.2143,0.0378,-0.0702,-0.049,0.1119,0.049,851.6313,19.98,56.1,-53.1,100.739,49.122,40.422,49.17440526,-121.6786791,0
6.2,-0.3982,-0.7095,0.4675,-0.2143,0.0378,-0.0702,-0.049,0.1119,0.049,851.6313,19.98,56.1,-53.1,100.739,49.122,40.422,49.17440526,-121.6786791,0
6.216,-0.3982,-0.7095,0.4675,-0.2885,0.8881,-0.0679,-0.049,0.1119,0.049,851.6313,19.98,56.1,-53.1,100.739,49.122,40.422,49.17440526,-121.6786791,0
6.236,-0.3611,-0.7007,0.492,-0.2885,0.8881,-0.0679,-0.049,0.1119,0.049,851.6313,19.98,56.1,-53.1,105.87,48.948,36.277,49.17440526,-121.6786791,0
6.241,-0.3611,-0.7007,0.492,-0.2885,0.8881,-0.0679,-0.049,0.1119,0.049,851.6313,19.5,55.86,-53.58,106.018,48.948,36.277,49.17440526,-121.6786791,0
6.249,-0.3611,-0.7007,0.492,-0.2885,0.8881,-0.0679,-0.0277,0.0234,0.0927,851.6313,19.5,55.86,-53.58,106.018,48.948,36.277,49.17440526,-121.6786791,0
6.273,-0.3611,-0.7007,0.492,0.1248,0.9332,0.1412,-0.0277,0.0234,0.0927,851.6313,19.5,55.86,-53.58,106.018,48.948,36.277,49.17440526,-121.6786791,0
6.292,-0.3186,-0.7858,0.4964,0.1248,0.9332,0.1412,-0.0277,0.0234,0.0927,851.6313,19.5,55.86,-53.58,131.157,53.107,32.693,49.17440526,-121.6786791,0
6.294,-0.3186,-0.7858,0.4964,0.1248,0.9332,0.1412,-0.0277,0.0234,0.0927,851.6313,19.08,55.62,-53.88,130.437,53.107,32.693,49.17440526,-121.6786791,0
6.296,-0.3186,-0.7858,0.4964,0.1248,0.9332,0.1412,-0.0639,0.0192,0.0586,851.6313,19.08,55.62,-53.88,130.437,53.107,32.693,49.17440526,-121.6786791,0
6.332,-0.3186,-0.7858,0.4964,0.5426,0.1019,0.1883,-0.0639,0.0192,0.0586,851.6313,19.08,55.62,-53.88,130.437,53.107,32.693,49.17440526,-121.6786791,0
6.354,-0.3865,-0.8669,0.4622,0.5426,0.1019,0.1883,-0.0639,0.0192,0.0586,851.6313,19.08,55.62,-53.88,121.576,55.2,39.904,49.17440526,-121.6786791,0
6.358,-0.3865,-0.8669,0.4622,0.5426,0.1019,0.1883,-0.0639,0.0192,0.0586,851.6313,18.72,55.44,-54.18,121.195,55.2,39.904,49.17440526,-121.6786791,0
6.361,-0.3865,-0.8669,0.4622,0.5426,0.1019,0.1883,-0.1268,0.1747,0.1119,851.6313,18.72,55.44,-54.18,121.195,55.2,39.904,49.17440526,-121.6786791,0
6.376,-0.3865,-0.8669,0.4622,0.5426,0.1019,0.1883,-0.1268,0.1747,0.1119,851.6096,18.72,55.44,-54.18,121.195,55.2,39.904,49.17440526,-121.6786791,0
6.381,-0.3865,-0.8669,0.4622,0.5426,0.1019,0.1883,-0.1268,0.1747,0.1119,851.6096,18.72,55.44,-54.18,121.195,55.2,39.904,49.17440526,-121.6786791,0
6.394,-0.3865,-0.8669,0.4622,-0.0501,-0.6618,-0.0357,-0.1268,0.1747,0.1119,851.6096,18.72,55.44,-54.18,121.195,55.2,39.904,49.17440526,-121.6786791,0
6.414,-0.3327,-0.8136,0.5291,-0.0501,-0.6618,-0.0357,-0.1268,0.1747,0.1119,851.6096,18.72,55.44,-54.18,128.932,52.467,32.165,49.17440526,-121.6786791,0
6.419,-0.3327,-0.8136,0.5291,-0.0501,-0.6618,-0.0357,-0.1268,0.1747,0.1119,851.6096,18.48,55.2,-54.48,128.81,52.467,32.165,49.17440526,-121.6786791,0
6.423,-0.3327,-0.8136,0.5291,-0.0501,-0.6618,-0.0357,-0.0959,0.2056,0.1662,851.6096,18.48,55.2,-54.48,128.81,52.467,32.165,49.17440526,-121.6786791,0
6.451,-0.3327,-0.8136,0.5291,0.5783,-0.1616,0.6677,-0.0959,0.2056,0.1662,851.6096,18.48,55.2,-54.48,128.81,52.467,32.165,49.17440526,-121.6786791,0
6.47,-0.3205,-0.8038,0.5066,0.5783,-0.1616,0.6677,-0.0959,0.2056,0.1662,851.6096,18.48,55.2,-54.48,131.191,53.284,32.32,49.17440526,-121.6786791,0
6.472,-0.3205,-0.8038,0.5066,0.5783,-0.1616,0.6677,-0.0959,0.2056,0.1662,851.6096,18.24,55.02,-54.72,130.903,53.284,32.32,49.17440526,-121.6786791,0
6.474,-0.3205,-0.8038,0.5066,0.5783,-0.1616,0.6677,0.0202,0.2471,0.1715,851.6096,18.24,55.02,-54.72,130.903,53.284,32.32,49.17440526,-121.6786791,0
6.511,-0.3205,-0.8038,0.5066,0.7849,-0.1045,0.4555,0.0202,0.2471,0.1715,851.6096,18.24,55.02,-54.72,130.903,53.284,32.32,49.17440526,-121.6786791,0
6.531,-0.3704,-0.7965,0.4739,0.7849,-0.1045,0.4555,0.0202,0.2471,0.1715,851.6096,18.24,55.02,-54.72,117.86,52.943,38.009,49.17440526,-121.6786791,0
6.533,-0.3704,-0.7965,0.4739,0.7849,-0.1045,0.4555,0.0202,0.2471,0.1715,851.6096,18.18,54.78,-54.9,118.192,52.943,38.009,49.17440526,-121.6786791,0
6.535,-0.3704,-0.7965,0.4739,0.7849,-0.1045,0.4555,0.1257,0.3334,0.13,851.6096,18.18,54.78,-54.9,118.192,52.943,38.009,49.17440526,-121.6786791,0
6.552,-0.3704,-0.7965,0.4739,0.7849,-0.1045,0.4555,0.1257,0.3334,0.13,851.4141,18.18,54.78,-54.9,118.192,52.943,38.009,49.17440526,-121.6786791,0
6.556,-0.3704,-0.7965,0.4739,0.7849,-0.1045,0.4555,0.1257,0.3334,0.13,851.4141,18.18,54.78,-54.9,118.192,52.943,38.009,49.17440526,-121.6786791,0
6.572,-0.3704,-0.7965,0.4739,0.3124,-0.0259,0.1603,0.1257,0.3334,0.13,851.4141,18.18,54.78,-54.9,118.192,52.943,38.009,49.17440526,-121.6786791,0
6.594,-0.3899,-0.7481,0.4778,0.3124,-0.0259,0.1603,0.1257,0.3334,0.13,851.4141,18.18,54.78,-54.9,108.362,50.5,39.216,49.17440526,-121.6786791,0
6.599,-0.3899,-0.7481,0.4778,0.3124,-0.0259,0.1603,0.1257,0.3334,0.13,851.4141,18.24,54.6,-55.02,108.874,50.5,39.216,49.17440526,-121.6786791,0
6.603,-0.3899,-0.7481,0.4778,0.3124,-0.0259,0.1603,-0.0192,0.3686,0.0341,851.4141,18.24,54.6,-55.02,108.874,50.5,39.216,49.17440526,-121.6786791,0
6.632,-0.3899,-0.7481,0.4778,0.189,0.4441,0.2523,-0.0192,0.3686,0.0341,851.4141,18.24,54.6,-55.02,108.874,50.5,39.216,49.17440526,-121.6786791,0
6.655,-0.4779,-0.7594,0.318,0.189,0.4441,0.2523,-0.0192,0.3686,0.0341,851.4141,18.24,54.6,-55.02,95.609,52.914,56.356,49.17440526,-121.6786791,0
6.66,-0.4779,-0.7594,0.318,0.189,0.4441,0.2523,-0.0192,0.3686,0.0341,851.4141,18.24,54.36,-55.08,95.873,52.914,56.356,49.17440526,-121.6786791,0
6.671,-0.4779,-0.7594,0.318,0.189,0.4441,0.2523,-0.2354,0.2791,-0.2056,851.4141,18.24,54.36,-55.08,95.873,52.914,56.356,49.17440526,-121.6786791,0
6.694,-0.4779,-0.7594,0.318,-0.6575,0.4651,-1.0603,-0.2354,0.2791,-0.2056,851.4141,18.24,54.36,-55.08,95.873,52.914,56.356,49.17440526,-121.6786791,0
6.714,-0.3308,-0.7613,0.4333,-0.6575,0.4651,-1.0603,-0.2354,0.2791,-0.2056,851.4141,18.24,54.36,-55.08,124.379,54.394,37.356,49.17440526,-121.6786791,0
6.718,-0.3308,-0.7613,0.4333,-0.6575,0.4651,-1.0603,-0.2354,0.2791,-0.2056,851.4141,18.3,54.24,-54.96,124.595,54.394,37.356,49.17440526,-121.6786791,0
6.727,-0.3308,-0.7613,0.4333,-0.6575,0.4651,-1.0603,-0.2141,-0.016,-0.2887,851.4141,18.3,54.24,-54.96,124.595,54.394,37.356,49.17440526,-121.6786791,0
6.735,-0.3308,-0.7613,0.4333,-0.6575,0.4651,-1.0603,-0.2141,-0.016,-0.2887,851.6187,18.3,54.24,-54.96,124.595,54.394,37.356,49.17440526,-121.6786791,0
6.739,-0.3308,-0.7613,0.4333,-0.6575,0.4651,-1.0603,-0.2141,-0.016,-0.2887,851.6187,18.3,54.24,-54.96,124.595,54.394,37.356,49.17440526,-121.6786791,0
6.752,-0.3308,-0.7613,0.4333,0.6337,0.5669,0.1595,-0.2141,-0.016,-0.2887,851.6187,18.3,54.24,-54.96,124.595,54.394,37.356,49.17440526,-121.6786791,0
6.772,-0.4183,-0.7457,0.3356,0.6337,0.5669,0.1595,-0.2141,-0.016,-0.2887,851.6187,18.3,54.24,-54.96,104.022,54.278,51.256,49.17440526,-121.6786791,0
6.779,-0.4183,-0.7457,0.3356,0.6337,0.5669,0.1595,-0.2141,-0.016,-0.2887,851.6187,18.3,54.12,-54.78,104.046,54.278,51.256,49.17440526,-121.6786791,0
6.782,-0.4183,-0.7457,0.3356,0.6337,0.5669,0.1595,-0.2248,0.1332,-0.1023,851.6187,18.3,54.12,-54.78,104.046,54.278,51.256,49.17440526,-121.6786791,0
6.811,-0.4183,-0.7457,0.3356,-0.2229,0.8034,-0.6297,-0.2248,0.1332,-0.1023,851.6187,18.3,54.12,-54.78,104.046,54.278,51.256,49.17440526,-121.6786791,0
6.834,-0.43,-0.8571,0.3835,-0.2229,0.8034,-0.6297,-0.2248,0.1332,-0.1023,851.6187,18.3,54.12,-54.78,111.667,56.09,48.27,49.17440526,-121.6786791,0
6.838,-0.43,-0.8571,0.3835,-0.2229,0.8034,-0.6297,-0.2248,0.1332,-0.1023,851.6187,18.36,54,-54.6,111.795,56.09,48.27,49.17440526,-121.6786791,0
6.842,-0.43,-0.8571,0.3835,-0.2229,0.8034,-0.6297,-0.2993,0.2557,-0.065,851.6187,18.36,54,-54.6,111.795,56.09,48.27,49.17440526,-121.6786791,0
6.872,-0.43,-0.8571,0.3835,-0.3045,-0.2021,0.0583,-0.2993,0.2557,-0.065,851.6187,18.36,54,-54.6,111.795,56.09,48.27,49.17440526,-121.6786791,0
6.892,-0.4696,-0.9226,0.384,-0.3045,-0.2021,0.0583,-0.2993,0.2557,-0.065,851.6187,18.36,54,-54.6,109.896,56.676,50.725,49.17440526,-121.6786791,0
6.895,-0.4696,-0.9226,0.384,-0.3045,-0.2021,0.0583,-0.2993,0.2557,-0.065,851.6187,18.42,53.94,-54.36,109.939,56.676,50.725,49.17440526,-121.6786791,0
6.898,-0.4696,-0.9226,0.384,-0.3045,-0.2021,0.0583,-0.3302,0.326,0.0149,851.6187,18.42,53.94,-54.36,109.939,56.676,50.725,49.17440526,-121.6786791,0
6.91,-0.4696,-0.9226,0.384,-0.3045,-0.2021,0.0583,-0.3302,0.326,0.0149,851.5576,18.42,53.94,-54.36,109.939,56.676,50.725,49.17440526,-121.6786791,0
6.913,-0.4696,-0.9226,0.384,-0.3045,-0.2021,0.0583,-0.3302,0.326,0.0149,851.5576,18.42,53.94,-54.36,109.939,56.676,50.725,49.17440526,-121.6786791,0
6.93,-0.4696,-0.9226,0.384,-0.602,-0.7907,0.2841,-0.3302,0.326,0.0149,851.5576,18.42,53.94,-54.36,109.939,56.676,50.725,49.17440526,-121.6786791,0
6.95,-0.4451,-0.8888,0.4553,-0.602,-0.7907,0.2841,-0.3302,0.326,0.0149,851.5576,18.42,53.94,-54.36,113.224,54.383,44.351,49.17440526,-121.6786791,0
6.953,-0.4451,-0.8888,0.4553,-0.602,-0.7907,0.2841,-0.3302,0.326,0.0149,851.5576,18.48,53.94,-54.06,113.162,54.383,44.351,49.17440526,-121.6786791,0
6.956,-0.4451,-0.8888,0.4553,-0.602,-0.7907,0.2841,-0.1875,0.1715,0.0969,851.5576,18.48,53.94,-54.06,113.162,54.383,44.351,49.17440526,-121.6786791,0
6.99,-0.4451,-0.8888,0.4553,-0.2998,-0.5141,0.9291,-0.1875,0.1715,0.0969,851.5576,18.48,53.94,-54.06,113.162,54.383,44.351,49.17440526,-121.6786791,0
7.01,-0.4784,-0.8972,0.4016,-0.2998,-0.5141,0.9291,-0.1875,0.1715,0.0969,851.5576,18.48,53.94,-54.06,107.528,55.156,49.986,49.17440526,-121.6786791,0
7.012,-0.4784,-0.8972,0.4016,-0.2998,-0.5141,0.9291,-0.1875,0.1715,0.0969,851.5576,18.54,53.88,-53.64,107.464,55.156,49.986,49.17440526,-121.6786791,0
7.015,-0.4784,-0.8972,0.4016,-0.2998,-0.5141,0.9291,-0.0511,-0.0831,0.0639,851.5576,18.54,53.88,-53.64,107.464,55.156,49.986,49.17440526,-121.6786791,0
7.051,-0.4784,-0.8972,0.4016,-0.6128,-0.608,0.3881,-0.0511,-0.0831,0.0639,851.5576,18.54,53.88,-53.64,107.464,55.156,49.986,49.17440526,-121.6786791,0
7.074,-0.4031,-0.926,0.3923,-0.6128,-0.608,0.3881,-0.0511,-0.0831,0.0639,851.5576,18.54,53.88,-53.64,121.046,58.724,45.779,49.17440526,-121.6786791,0
7.082,-0.4031,-0.926,0.3923,-0.6128,-0.608,0.3881,-0.0511,-0.0831,0.0639,851.5576,18.6,53.82,-53.16,121.07,58.724,45.779,49.17440526,-121.6786791,0
7.09,-0.4031,-0.926,0.3923,-0.6128,-0.608,0.3881,0.1577,-0.1332,0.0874,851.5576,18.6,53.82,-53.16,121.07,58.724,45.779,49.17440526,-121.6786791,0
7.095,-0.4031,-0.926,0.3923,-0.6128,-0.608,0.3881,0.1577,-0.1332,0.0874,851.6226,18.6,53.82,-53.16,121.07,58.724,45.779,49.17440526,-121.6786791,0
7.097,-0.4031,-0.926,0.3923,-0.6128,-0.608,0.3881,0.1577,-0.1332,0.0874,851.6226,18.6,53.82,-53.16,121.07,58.724,45.779,49.17440526,-121.6786791,0
7.11,-0.4031,-0.926,0.3923,0.1007,-0.9256,0.1905,0.1577,-0.1332,0.0874,851.6226,18.6,53.82,-53.16,121.07,58.724,45.779,49.17440526,-121.6786791,0
7.13,-0.1769,-0.8473,0.5755,0.1007,-0.9256,0.1905,0.1577,-0.1332,0.0874,851.6226,18.6,53.82,-53.16,-171.632,54.603,17.084,49.17440526,-121.6786791,0
7.132,-0.1769,-0.8473,0.5755,0.1007,-0.9256,0.1905,0.1577,-0.1332,0.0874,851.6226,18.72,53.82,-52.68,-170.439,54.603,17.084,49.17440526,-121.6786791,0
7.133,-0.1769,-0.8473,0.5755,0.1007,-0.9256,0.1905,0.2003,0.1055,0.1172,851.6226,18.72,53.82,-52.68,-170.439,54.603,17.084,49.17440526,-121.6786791,0
7.179,-0.1769,-0.8473,0.5755,2.2106,-0.2054,1.763,0.2003,0.1055,0.1172,851.6226,18.72,53.82,-52.68,-170.439,54.603,17.084,49.17440526,-121.6786791,0
7.195,-0.3792,-0.796,0.3899,2.2106,-0.2054,1.763,0.2003,0.1055,0.1172,851.6226,18.72,53.82,-52.68,116.454,55.659,44.204,49.17440526,-121.6786791,0
7.2,-0.3792,-0.796,0.3899,2.2106,-0.2054,1.763,0.2003,0.1055,0.1172,851.6226,18.84,53.76,-52.2,116.511,55.659,44.204,49.17440526,-121.6786791,0
7.205,-0.3792,-0.796,0.3899,2.2106,-0.2054,1.763,0.2961,0.2226,0.0671,851.6226,18.84,53.76,-52.2,116.511,55.659,44.204,49.17440526,-121.6786791,0
7.228,-0.3792,-0.796,0.3899,0.2892,0.227,-0.1395,0.2961,0.2226,0.0671,851.6226,18.84,53.76,-52.2,116.511,55.659,44.204,49.17440526,-121.6786791,0
7.25,-0.5145,-0.7266,0.3464,0.2892,0.227,-0.1395,0.2961,0.2226,0.0671,851.6226,18.84,53.76,-52.2,88.526,49.517,56.052,49.17440526,-121.6786791,0
7.252,-0.5145,-0.7266,0.3464,0.2892,0.227,-0.1395,0.2961,0.2226,0.0671,851.6226,19.08,53.76,-51.78,88.456,49.517,56.052,49.17440526,-121.6786791,0
7.254,-0.5145,-0.7266,0.3464,0.2892,0.227,-0.1395,-0.0181,0.1321,-0.0756,851.6226,19.08,53.76,-51.78,88.456,49.517,56.052,49.17440526,-121.6786791,0
7.267,-0.5145,-0.7266,0.3464,0.2892,0.227,-0.1395,-0.0181,0.1321,-0.0756,851.5903,19.08,53.76,-51.78,88.456,49.517,56.052,49.17440526,-121.6786791,0
7.269,-0.5145,-0.7266,0.3464,0.2892,0.227,-0.1395,-0.0181,0.1321,-0.0756,851.5903,19.08,53.76,-51.78,88.456,49.517,56.052,49.17440526,-121.6786791,0
7.291,-0.5145,-0.7266,0.3464,-0.961,0.8993,-0.5029,-0.0181,0.1321,-0.0756,851.5903,19.08,53.76,-51.78,88.456,49.517,56.052,49.17440526,-121.6786791,0
7.314,-0.4813,-0.8341,0.3298,-0.961,0.8993,-0.5029,-0.0181,0.1321,-0.0756,851.5903,19.08,53.76,-51.78,100.76,55.03,55.583,49.17440526,-121.6786791,0
7.319,-0.4813,-0.8341,0.3298,-0.961,0.8993,-0.5029,-0.0181,0.1321,-0.0756,851.5903,19.26,53.7,-51.36,100.842,55.03,55.583,49.17440526,-121.6786791,0
7.328,-0.4813,-0.8341,0.3298,-0.961,0.8993,-0.5029,-0.131,-0.2067,-0.1843,851.5903,19.26,53.7,-51.36,100.842,55.03,55.583,49.17440526,-121.6786791,0
7.35,-0.4813,-0.8341,0.3298,-0.7302,-0.0759,-0.6016,-0.131,-0.2067,-0.1843,851.5903,19.26,53.7,-51.36,100.842,55.03,55.583,49.17440526,-121.6786791,0
7.369,-0.3689,-0.8248,0.3664,-0.7302,-0.0759,-0.6016,-0.131,-0.2067,-0.1843,851.5903,19.26,53.7,-51.36,120.634,57.775,45.195,49.17440526,-121.6786791,0
7.372,-0.3689,-0.8248,0.3664,-0.7302,-0.0759,-0.6016,-0.131,-0.2067,-0.1843,851.5903,19.44,53.64,-50.94,120.9,57.775,45.195,49.17440526,-121.6786791,0
7.375,-0.3689,-0.8248,0.3664,-0.7302,-0.0759,-0.6016,-0.0959,-0.3313,-0.0778,851.5903,19.44,53.64,-50.94,120.9,57.775,45.195,49.17440526,-121.6786791,0
7.409,-0.3689,-0.8248,0.3664,0.2358,0.0715,-0.2612,-0.0959,-0.3313,-0.0778,851.5903,19.44,53.64,-50.94,120.9,57.775,45.195,49.17440526,-121.6786791,0
7.436,-0.3484,-0.8732,0.3933,0.2358,0.0715,-0.2612,-0.0959,-0.3313,-0.0778,851.5903,19.44,53.64,-50.94,129.879,58.966,41.536,49.17440526,-121.6786791,0
7.467,-0.3484,-0.8732,0.3933,0.2358,0.0715,-0.2612,-0.0959,-0.3313,-0.0778,851.5903,19.62,53.64,-50.52,130.197,58.966,41.536,49.17440526,-121.6786791,0
7.469,-0.3484,-0.8732,0.3933,0.2358,0.0715,-0.2612,0,-0.0692,0.1459,851.5903,19.62,53.64,-50.52,130.197,58.966,41.536,49.17440526,-121.6786791,0
7.47,-0.3484,-0.8732,0.3933,0.2358,0.0715,-0.2612,0,-0.0692,0.1459,851.5305,19.62,53.64,-50.52,130.197,58.966,41.536,49.17440526,-121.6786791,0
7.472,-0.3484,-0.8732,0.3933,0.2358,0.0715,-0.2612,0,-0.0692,0.1459,851.5305,19.62,53.64,-50.52,130.197,58.966,41.536,49.17440526,-121.6786791,0
7.474,-0.3484,-0.8732,0.3933,0.4424,-0.4101,-0.0083,0,-0.0692,0.1459,851.5305,19.62,53.64,-50.52,130.197,58.966,41.536,49.17440526,-121.6786791,0
7.488,-0.3831,-0.8669,0.3175,0.4424,-0.4101,-0.0083,0,-0.0692,0.1459,851.5305,19.62,53.64,-50.52,118.567,60.145,50.344,49.17440526,-121.6786791,0
7.49,-0.3831,-0.8669,0.3175,0.4424,-0.4101,-0.0083,0,-0.0692,0.1459,851.5305,19.8,53.58,-50.1,118.833,60.145,50.344,49.17440526,-121.6786791,0
7.491,-0.3831,-0.8669,0.3175,0.4424,-0.4101,-0.0083,0.0085,0.2674,0.1055,851.5305,19.8,53.58,-50.1,118.833,60.145,50.344,49.17440526,-121.6786791,0
7.53,-0.3831,-0.8669,0.3175,0.1914,-0.3403,-0.6433,0.0085,0.2674,0.1055,851.5305,19.8,53.58,-50.1,118.833,60.145,50.344,49.17440526,-121.6786791,0
7.551,-0.3337,-0.7774,0.3131,0.1914,-0.3403,-0.6433,0.0085,0.2674,0.1055,851.5305,19.8,53.58,-50.1,122.787,59.517,46.823,49.17440526,-121.6786791,0
7.554,-0.3337,-0.7774,0.3131,0.1914,-0.3403,-0.6433,0.0085,0.2674,0.1055,851.5305,19.98,53.52,-49.74,123.108,59.517,46.823,49.17440526,-121.6786791,0
7.557,-0.3337,-0.7774,0.3131,0.1914,-0.3403,-0.6433,0.049,0.2727,-0.0586,851.5305,19.98,53.52,-49.74,123.108,59.517,46.823,49.17440526,-121.6786791,0
7.593,-0.3337,-0.7774,0.3131,0.6752,0.5635,-0.6257,0.049,0.2727,-0.0586,851.5305,19.98,53.52,-49.74,123.108,59.517,46.823,49.17440526,-121.6786791,0
7.608,-0.3596,-0.7125,0.3659,0.6752,0.5635,-0.6257,0.049,0.2727,-0.0586,851.5305,19.98,53.52,-49.74,113.299,54.242,44.503,49.17440526,-121.6786791,0
7.61,-0.3596,-0.7125,0.3659,0.6752,0.5635,-0.6257,0.049,0.2727,-0.0586,851.5305,20.16,53.52,-49.32,113.398,54.242,44.503,49.17440526,-121.6786791,0
7.612,-0.3596,-0.7125,0.3659,0.6752,0.5635,-0.6257,-0.0458,0.1374,-0.1545,851.5305,20.16,53.52,-49.32,113.398,54.242,44.503,49.17440526,-121.6786791,0
7.627,-0.3596,-0.7125,0.3659,0.6752,0.5635,-0.6257,-0.0458,0.1374,-0.1545,851.5569,20.16,53.52,-49.32,113.398,54.242,44.503,49.17440526,-121.6786791,0
7.629,-0.3596,-0.7125,0.3659,0.6752,0.5635,-0.6257,-0.0458,0.1374,-0.1545,851.5569,20.16,53.52,-49.32,113.398,54.242,44.503,49.17440526,-121.6786791,0
7.653,-0.3596,-0.7125,0.3659,0.3734,1.2352,-0.0822,-0.0458,0.1374,-0.1545,851.5569,20.16,53.52,-49.32,113.398,54.242,44.503,49.17440526,-121.6786791,0
7.671,-0.5155,-0.8395,0.3806,0.3734,1.2352,-0.0822,-0.0458,0.1374,-0.1545,851.5569,20.16,53.52,-49.32,97.62,52.647,53.563,49.17440526,-121.6786791,0
7.676,-0.5155,-0.8395,0.3806,0.3734,1.2352,-0.0822,-0.0458,0.1374,-0.1545,851.5569,20.28,53.46,-48.96,97.603,52.647,53.563,49.17440526,-121.6786791,0
7.68,-0.5155,-0.8395,0.3806,0.3734,1.2352,-0.0822,-0.1374,0.2535,-0.2823,851.5569,20.28,53.46,-48.96,97.603,52.647,53.563,49.17440526,-121.6786791,0
7.71,-0.5155,-0.8395,0.3806,-1.1735,0.0542,0.1871,-0.1374,0.2535,-0.2823,851.5569,20.28,53.46,-48.96,97.603,52.647,53.563,49.17440526,-121.6786791,0
7.731,-0.3826,-0.8405,0.5618,-1.1735,0.0542,0.1871,-0.1374,0.2535,-0.2823,851.5569,20.28,53.46,-48.96,121.918,51.036,34.253,49.17440526,-121.6786791,0
7.734,-0.3826,-0.8405,0.5618,-1.1735,0.0542,0.1871,-0.1374,0.2535,-0.2823,851.5569,20.4,53.4,-48.6,122.103,51.036,34.253,49.17440526,-121.6786791,0
7.737,-0.3826,-0.8405,0.5618,-1.1735,0.0542,0.1871,-0.0064,0.1907,-0.2674,851.5569,20.4,53.4,-48.6,122.103,51.036,34.253,49.17440526,-121.6786791,0
7.769,-0.3826,-0.8405,0.5618,0.0058,0.066,1.8818,-0.0064,0.1907,-0.2674,851.5569,20.4,53.4,-48.6,122.103,51.036,34.253,49.17440526,-121.6786791,0
7.796,-0.4417,-0.8258,0.2008,0.0058,0.066,1.8818,-0.0064,0.1907,-0.2674,851.5569,20.4,53.4,-48.6,99.98,59.565,65.558,49.17440526,-121.6786791,0
7.802,-0.4417,-0.8258,0.2008,0.0058,0.066,1.8818,-0.0064,0.1907,-0.2674,851.5569,20.52,53.4,-48.3,100.049,59.565,65.558,49.17440526,-121.6786791,0
7.81,-0.4417,-0.8258,0.2008,0.0058,0.066,1.8818,0.0916,0.3686,0.0352,851.5569,20.52,53.4,-48.3,100.049,59.565,65.558,49.17440526,-121.6786791,0
7.816,-0.4417,-0.8258,0.2008,0.0058,0.066,1.8818,0.0916,0.3686,0.0352,851.6106,20.52,53.4,-48.3,100.049,59.565,65.558,49.17440526,-121.6786791,0
7.821,-0.4417,-0.8258,0.2008,0.0058,0.066,1.8818,0.0916,0.3686,0.0352,851.6106,20.52,53.4,-48.3,100.049,59.565,65.558,49.17440526,-121.6786791,0
7.829,-0.4417,-0.8258,0.2008,-0.4366,0.2067,-1.5164,0.0916,0.3686,0.0352,851.6106,20.52,53.4,-48.3,100.049,59.565,65.558,49.17440526,-121.6786791,0
7.847,-0.4564,-0.8219,0.321,-0.4366,0.2067,-1.5164,0.0916,0.3686,0.0352,851.6106,20.52,53.4,-48.3,103.956,55.831,54.882,49.17440526,-121.6786791,0
7.849,-0.4564,-0.8219,0.321,-0.4366,0.2067,-1.5164,0.0916,0.3686,0.0352,851.6106,20.64,53.34,-48,104.055,55.831,54.882,49.17440526,-121.6786791,0
7.851,-0.4564,-0.8219,0.321,-0.4366,0.2067,-1.5164,0.049,0.0522,-0.2024,851.6106,20.64,53.34,-48,104.055,55.831,54.882,49.17440526,-121.6786791,0
7.89,-0.4564,-0.8219,0.321,-0.6293,0.2721,-0.3283,0.049,0.0522,-0.2024,851.6106,20.64,53.34,-48,104.055,55.831,54.882,49.17440526,-121.6786791,0
7.913,-0.3845,-0.797,0.3249,-0.6293,0.2721,-0.3283,0.049,0.0522,-0.2024,851.6106,20.64,53.34,-48,115.299,57.723,49.808,49.17440526,-121.6786791,0
7.92,-0.3845,-0.797,0.3249,-0.6293,0.2721,-0.3283,0.049,0.0522,-0.2024,851.6106,20.7,53.34,-47.7,115.303,57.723,49.808,49.17440526,-121.6786791,0
7.927,-0.3845,-0.797,0.3249,-0.6293,0.2721,-0.3283,-0.2109,0.1459,-0.3047,851.6106,20.7,53.34,-47.7,115.303,57.723,49.808,49.17440526,-121.6786791,0
7.948,-0.3845,-0.797,0.3249,-0.04,0.6233,-0.154,-0.2109,0.1459,-0.3047,851.6106,20.7,53.34,-47.7,115.303,57.723,49.808,49.17440526,-121.6786791,0
7.969,-0.4788,-0.8708,0.3449,-0.04,0.6233,-0.154,-0.2109,0.1459,-0.3047,851.6106,20.7,53.34,-47.7,104.857,55.874,54.236,49.17440526,-121.6786791,0
7.971,-0.4788,-0.8708,0.3449,-0.04,0.6233,-0.154,-0.2109,0.1459,-0.3047,851.6106,20.7,53.28,-47.46,104.795,55.874,54.236,49.17440526,-121.6786791,0
7.973,-0.4788,-0.8708,0.3449,-0.04,0.6233,-0.154,-0.1875,0.0842,-0.2194,851.6106,20.7,53.28,-47.46,104.795,55.874,54.236,49.17440526,-121.6786791,0
7.987,-0.4788,-0.8708,0.3449,-0.04,0.6233,-0.154,-0.1875,0.0842,-0.2194,851.6233,20.7,53.28,-47.46,104.795,55.874,54.236,49.17440526,-121.6786791,0
7.989,-0.4788,-0.8708,0.3449,-0.04,0.6233,-0.154,-0.1875,0.0842,-0.2194,851.6233,20.7,53.28,-47.46,104.795,55.874,54.236,49.17440526,-121.6786791,0
8.01,-0.4788,-0.8708,0.3449,-1.0056,-0.0377,0.1557,-0.1875,0.0842,-0.2194,851.6233,20.7,53.28,-47.46,104.795,55.874,54.236,49.17440526,-121.6786791,0
8.031,-0.4539,-0.8136,0.3307,-1.0056,-0.0377,0.1557,-0.1875,0.0842,-0.2194,851.6233,20.7,53.28,-47.46,103.951,55.383,53.923,49.17440526,-121.6786791,0
8.033,-0.4539,-0.8136,0.3307,-1.0056,-0.0377,0.1557,-0.1875,0.0842,-0.2194,851.6233,20.7,53.28,-47.28,103.845,55.383,53.923,49.17440526,-121.6786791,0
8.035,-0.4539,-0.8136,0.3307,-1.0056,-0.0377,0.1557,-0.2194,-0.0011,-0.0394,851.6233,20.7,53.28,-47.28,103.845,55.383,53.923,49.17440526,-121.6786791,0
8.068,-0.4539,-0.8136,0.3307,-0.7315,0.5464,0.1156,-0.2194,-0.0011,-0.0394,851.6233,20.7,53.28,-47.28,103.845,55.383,53.923,49.17440526,-121.6786791,0
8.089,-0.4104,-0.8014,0.3459,-0.7315,0.5464,0.1156,-0.2194,-0.0011,-0.0394,851.6233,20.7,53.28,-47.28,111.129,56.187,49.879,49.17440526,-121.6786791,0
8.091,-0.4104,-0.8014,0.3459,-0.7315,0.5464,0.1156,-0.2194,-0.0011,-0.0394,851.6233,20.64,53.28,-47.1,110.917,56.187,49.879,49.17440526,-121.6786791,0
8.093,-0.4104,-0.8014,0.3459,-0.7315,0.5464,0.1156,-0.49,-0.3228,0.0533,851.6233,20.64,53.28,-47.1,110.917,56.187,49.879,49.17440526,-121.6786791,0
8.128,-0.4104,-0.8014,0.3459,-0.3126,0.7191,0.4035,-0.49,-0.3228,0.0533,851.6233,20.64,53.28,-47.1,110.917,56.187,49.879,49.17440526,-121.6786791,0
8.149,-0.2795,-0.9055,0.1431,-0.3126,0.7191,0.4035,-0.49,-0.3228,0.0533,851.6233,20.64,53.28,-47.1,121.827,70.875,62.887,49.17440526,-121.6786791,0
8.154,-0.2795,-0.9055,0.1431,-0.3126,0.7191,0.4035,-0.49,-0.3228,0.0533,851.6233,20.58,53.34,-46.8,121.762,70.875,62.887,49.17440526,-121.6786791,0
8.158,-0.2795,-0.9055,0.1431,-0.3126,0.7191,0.4035,-0.3398,-0.0927,0.1555,851.6233,20.58,53.34,-46.8,121.762,70.875,62.887,49.17440526,-121.6786791,0
8.168,-0.2795,-0.9055,0.1431,-0.3126,0.7191,0.4035,-0.3398,-0.0927,0.1555,851.614,20.58,53.34,-46.8,121.762,70.875,62.887,49.17440526,-121.6786791,0
8.171,-0.2795,-0.9055,0.1431,-0.3126,0.7191,0.4035,-0.3398,-0.0927,0.1555,851.614,20.58,53.34,-46.8,121.762,70.875,62.887,49.17440526,-121.6786791,0
8.189,-0.2795,-0.9055,0.1431,0.9649,-0.2167,-1.3382,-0.3398,-0.0927,0.1555,851.614,20.58,53.34,-46.8,121.762,70.875,62.887,49.17440526,-121.6786791,0
8.209,-0.1915,-0.9191,0.1475,0.9649,-0.2167,-1.3382,-0.3398,-0.0927,0.1555,851.614,20.58,53.34,-46.8,140.564,75.264,52.401,49.17440526,-121.6786791,0
8.212,-0.1915,-0.9191,0.1475,0.9649,-0.2167,-1.3382,-0.3398,-0.0927,0.1555,851.614,20.4,53.46,-46.5,140.384,75.264,52.401,49.17440526,-121.6786791,0
8.215,-0.1915,-0.9191,0.1475,0.9649,-0.2167,-1.3382,-0.8373,0.0352,0.1278,851.614,20.4,53.46,-46.5,140.384,75.264,52.401,49.17440526,-121.6786791,0
8.25,-0.1915,-0.9191,0.1475,1.7702,-0.1859,-0.8005,-0.8373,0.0352,0.1278,851.614,20.4,53.46,-46.5,140.384,75.264,52.401,49.17440526,-121.6786791,0
8.27,-0.321,-0.7535,0.4201,1.7702,-0.1859,-0.8005,-0.8373,0.0352,0.1278,851.614,20.4,53.46,-46.5,128.83,54.942,37.382,49.17440526,-121.6786791,0
8.273,-0.321,-0.7535,0.4201,1.7702,-0.1859,-0.8005,-0.8373,0.0352,0.1278,851.614,20.22,53.58,-46.02,127.786,54.942,37.382,49.17440526,-121.6786791,0
8.276,-0.321,-0.7535,0.4201,1.7702,-0.1859,-0.8005,0.0117,-0.6743,-0.0352,851.614,20.22,53.58,-46.02,127.786,54.942,37.382,49.17440526,-121.6786791,0
8.31,-0.321,-0.7535,0.4201,0.3756,1.409,1.5783,0.0117,-0.6743,-0.0352,851.614,20.22,53.58,-46.02,127.786,54.942,37.382,49.17440526,-121.6786791,0
8.33,-0.4798,-1.1639,0.1998,0.3756,1.409,1.5783,0.0117,-0.6743,-0.0352,851.614,20.22,53.58,-46.02,108.106,65.937,67.395,49.17440526,-121.6786791,0
8.333,-0.4798,-1.1639,0.1998,0.3756,1.409,1.5783,0.0117,-0.6743,-0.0352,851.614,19.86,53.64,-45.48,107.502,65.937,67.395,49.17440526,-121.6786791,0
8.337,-0.4798,-1.1639,0.1998,0.3756,1.409,1.5783,0.1694,0.8906,-0.0511,851.614,19.86,53.64,-45.48,107.502,65.937,67.395,49.17440526,-121.6786791,0
8.348,-0.4798,-1.1639,0.1998,0.3756,1.409,1.5783,0.1694,0.8906,-0.0511,851.666,19.86,53.64,-45.48,107.502,65.937,67.395,49.17440526,-121.6786791,0
8.353,-0.4798,-1.1639,0.1998,0.3756,1.409,1.5783,0.1694,0.8906,-0.0511,851.666,19.86,53.64,-45.48,107.502,65.937,67.395,49.17440526,-121.6786791,0
8.37,-0.4798,-1.1639,0.1998,-1.0785,-2.6039,-0.3986,0.1694,0.8906,-0.0511,851.666,19.86,53.64,-45.48,107.502,65.937,67.395,49.17440526,-121.6786791,0
8.389,-0.6069,-0.8664,0.1871,-1.0785,-2.6039,-0.3986,0.1694,0.8906,-0.0511,851.666,19.86,53.64,-45.48,81.534,53.759,72.867,49.17440526,-121.6786791,0
8.393,-0.6069,-0.8664,0.1871,-1.0785,-2.6039,-0.3986,0.1694,0.8906,-0.0511,851.666,19.44,53.28,-44.76,80.982,53.759,72.867,49.17440526,-121.6786791,0
8.396,-0.6069,-0.8664,0.1871,-1.0785,-2.6039,-0.3986,0.7233,-0.3174,0.2173,851.666,19.44,53.28,-44.76,80.982,53.759,72.867,49.17440526,-121.6786791,0
8.43,-0.6069,-0.8664,0.1871,-2.1196,0.1172,-0.8922,0.7233,-0.3174,0.2173,851.666,19.44,53.28,-44.76,80.982,53.759,72.867,49.17440526,-121.6786791,0
8.452,-0.4012,-0.8087,0.2955,-2.1196,0.1172,-0.8922,0.7233,-0.3174,0.2173,851.666,19.44,53.28,-44.76,108.038,58.362,53.619,49.17440526,-121.6786791,0
8.457,-0.4012,-0.8087,0.2955,-2.1196,0.1172,-0.8922,0.7233,-0.3174,0.2173,851.666,18.96,52.38,-44.16,107.835,58.362,53.619,49.17440526,-121.6786791,0
8.46,-0.4012,-0.8087,0.2955,-2.1196,0.1172,-0.8922,-0.1662,-0.6061,-0.1566,851.666,18.96,52.38,-44.16,107.835,58.362,53.619,49.17440526,-121.6786791,0
8.486,-0.4012,-0.8087,0.2955,-0.2613,0.7286,0.1017,-0.1662,-0.6061,-0.1566,851.666,18.96,52.38,-44.16,107.835,58.362,53.619,49.17440526,-121.6786791,0
8.51,-0.3577,-0.8986,0.3097,-0.2613,0.7286,0.1017,-0.1662,-0.6061,-0.1566,851.666,18.96,52.38,-44.16,123.459,62.233,49.109,49.17440526,-121.6786791,0
8.512,-0.3577,-0.8986,0.3097,-0.2613,0.7286,0.1017,-0.1662,-0.6061,-0.1566,851.666,18.42,51.48,-43.5,123.02,62.233,49.109,49.17440526,-121.6786791,0
8.513,-0.3577,-0.8986,0.3097,-0.2613,0.7286,0.1017,-0.0011,-0.7148,-0.1811,851.666,18.42,51.48,-43.5,123.02,62.233,49.109,49.17440526,-121.6786791,0
8.527,-0.3577,-0.8986,0.3097,-0.2613,0.7286,0.1017,-0.0011,-0.7148,-0.1811,851.6438,18.42,51.48,-43.5,123.02,62.233,49.109,49.17440526,-121.6786791,0
8.53,-0.3577,-0.8986,0.3097,-0.2613,0.7286,0.1017,-0.0011,-0.7148,-0.1811,851.6438,18.42,51.48,-43.5,123.02,62.233,49.109,49.17440526,-121.6786791,0
8.548,-0.3577,-0.8986,0.3097,-0.0632,-0.1105,0.0851,-0.0011,-0.7148,-0.1811,851.6438,18.42,51.48,-43.5,123.02,62.233,49.109,49.17440526,-121.6786791,0
8.57,-0.2795,-0.816,0.2574,-0.0632,-0.1105,0.0851,-0.0011,-0.7148,-0.1811,851.6438,18.42,51.48,-43.5,131.503,65.031,47.352,49.17440526,-121.6786791,0
8.573,-0.2795,-0.816,0.2574,-0.0632,-0.1105,0.0851,-0.0011,-0.7148,-0.1811,851.6438,17.88,50.58,-42.84,131.037,65.031,47.352,49.17440526,-121.6786791,0
8.577,-0.2795,-0.816,0.2574,-0.0632,-0.1105,0.0851,0.0373,-0.8096,-0.1289,851.6438,17.88,50.58,-42.84,131.037,65.031,47.352,49.17440526,-121.6786791,0
8.612,-0.2795,-0.816,0.2574,0.4655,0.7335,-0.5878,0.0373,-0.8096,-0.1289,851.6438,17.88,50.58,-42.84,131.037,65.031,47.352,49.17440526,-121.6786791,0
8.628,-0.277,-0.9343,0.3913,0.4655,0.7335,-0.5878,0.0373,-0.8096,-0.1289,851.6438,17.88,50.58,-42.84,149.436,62.834,35.298,49.17440526,-121.6786791,0
8.631,-0.277,-0.9343,0.3913,0.4655,0.7335,-0.5878,0.0373,-0.8096,-0.1289,851.6438,17.22,49.68,-42.24,148.42,62.834,35.298,49.17440526,-121.6786791,0
8.634,-0.277,-0.9343,0.3913,0.4655,0.7335,-0.5878,0.3324,-0.6658,-0.0522,851.6438,17.22,49.68,-42.24,148.42,62.834,35.298,49.17440526,-121.6786791,0
8.669,-0.277,-0.9343,0.3913,0.2869,-0.4724,0.4066,0.3324,-0.6658,-0.0522,851.6438,17.22,49.68,-42.24,148.42,62.834,35.298,49.17440526,-121.6786791,0
8.688,-0.2624,-0.9573,0.4241,0.2869,-0.4724,0.4066,0.3324,-0.6658,-0.0522,851.6438,17.22,49.68,-42.24,155.887,62.483,31.747,49.17440526,-121.6786791,0
8.691,-0.2624,-0.9573,0.4241,0.2869,-0.4724,0.4066,0.3324,-0.6658,-0.0522,851.6438,16.5,48.84,-41.64,154.529,62.483,31.747,49.17440526,-121.6786791,0
8.694,-0.2624,-0.9573,0.4241,0.2869,-0.4724,0.4066,0.3696,-0.3526,-0.0639,851.6438,16.5,48.84,-41.64,154.529,62.483,31.747,49.17440526,-121.6786791,0
8.709,-0.2624,-0.9573,0.4241,0.2869,-0.4724,0.4066,0.3696,-0.3526,-0.0639,851.5378,16.5,48.84,-41.64,154.529,62.483,31.747,49.17440526,-121.6786791,0
8.713,-0.2624,-0.9573,0.4241,0.2869,-0.4724,0.4066,0.3696,-0.3526,-0.0639,851.5378,16.5,48.84,-41.64,154.529,62.483,31.747,49.17440526,-121.6786791,0
8.731,-0.2624,-0.9573,0.4241,0.2733,-0.7493,0.4719,0.3696,-0.3526,-0.0639,851.5378,16.5,48.84,-41.64,154.529,62.483,31.747,49.17440526,-121.6786791,0
8.747,-0.3313,-0.9167,0.4006,0.2733,-0.7493,0.4719,0.3696,-0.3526,-0.0639,851.5378,16.5,48.84,-41.64,133.178,60.444,39.589,49.17440526,-121.6786791,0
8.75,-0.3313,-0.9167,0.4006,0.2733,-0.7493,0.4719,0.3696,-0.3526,-0.0639,851.5378,15.72,47.94,-41.1,131.87,60.444,39.589,49.17440526,-121.6786791,0
8.753,-0.3313,-0.9167,0.4006,0.2733,-0.7493,0.4719,0.6551,-0.212,-0.1374,851.5378,15.72,47.94,-41.1,131.87,60.444,39.589,49.17440526,-121.6786791,0
8.787,-0.3313,-0.9167,0.4006,-0.5045,-0.4726,-0.1008,0.6551,-0.212,-0.1374,851.5378,15.72,47.94,-41.1,131.87,60.444,39.589,49.17440526,-121.6786791,0
8.815,-0.3225,-0.8449,0.428,-0.5045,-0.4726,-0.1008,0.6551,-0.212,-0.1374,851.5378,15.72,47.94,-41.1,129.475,57.615,36.999,49.17440526,-121.6786791,0
8.821,-0.3225,-0.8449,0.428,-0.5045,-0.4726,-0.1008,0.6551,-0.212,-0.1374,851.5378,14.94,47.04,-40.62,128.046,57.615,36.999,49.17440526,-121.6786791,0
8.827,-0.3225,-0.8449,0.428,-0.5045,-0.4726,-0.1008,0.7979,-0.1694,-0.1033,851.5378,14.94,47.04,-40.62,128.046,57.615,36.999,49.17440526,-121.6786791,0
8.849,-0.3225,-0.8449,0.428,-0.4924,0.0506,-0.2396,0.7979,-0.1694,-0.1033,851.5378,14.94,47.04,-40.62,128.046,57.615,36.999,49.17440526,-121.6786791,0
8.87,-0.2292,-0.796,0.4773,-0.4924,0.0506,-0.2396,0.7979,-0.1694,-0.1033,851.5378,14.94,47.04,-40.62,157.28,56.37,25.646,49.17440526,-121.6786791,0
8.873,-0.2292,-0.796,0.4773,-0.4924,0.0506,-0.2396,0.7979,-0.1694,-0.1033,851.5378,14.16,46.14,-40.38,154.456,56.37,25.646,49.17440526,-121.6786791,0
8.877,-0.2292,-0.796,0.4773,-0.4924,0.0506,-0.2396,0.7382,-0.2322,-0.0117,851.5378,14.16,46.14,-40.38,154.456,56.37,25.646,49.17440526,-121.6786791,0
8.887,-0.2292,-0.796,0.4773,-0.4924,0.0506,-0.2396,0.7382,-0.2322,-0.0117,851.6543,14.16,46.14,-40.38,154.456,56.37,25.646,49.17440526,-121.6786791,0
8.89,-0.2292,-0.796,0.4773,-0.4924,0.0506,-0.2396,0.7382,-0.2322,-0.0117,851.6543,14.16,46.14,-40.38,154.456,56.37,25.646,49.17440526,-121.6786791,0
8.909,-0.2292,-0.796,0.4773,0.3202,0.3225,-0.1799,0.7382,-0.2322,-0.0117,851.6543,14.16,46.14,-40.38,154.456,56.37,25.646,49.17440526,-121.6786791,0
8.931,-0.1896,-0.773,0.5052,0.3202,0.3225,-0.1799,0.7382,-0.2322,-0.0117,851.6543,14.16,46.14,-40.38,173.875,55.086,20.57,49.17440526,-121.6786791,0
8.936,-0.1896,-0.773,0.5052,0.3202,0.3225,-0.1799,0.7382,-0.2322,-0.0117,851.6543,13.38,45.12,-40.38,169.579,55.086,20.57,49.17440526,-121.6786791,0
8.941,-0.1896,-0.773,0.5052,0.3202,0.3225,-0.1799,0.4421,-0.0831,0.1949,851.6543,13.38,45.12,-40.38,169.579,55.086,20.57,49.17440526,-121.6786791,0
8.978,-0.1896,-0.773,0.5052,0.7203,0.3957,-0.1462,0.4421,-0.0831,0.1949,851.6543,13.38,45.12,-40.38,169.579,55.086,20.57,49.17440526,-121.6786791,0
8.991,-0.1642,-0.8053,0.5017,0.7203,0.3957,-0.1462,0.4421,-0.0831,0.1949,851.6543,13.38,45.12,-40.38,-179.159,56.753,18.118,49.17440526,-121.6786791,0
8.997,-0.1642,-0.8053,0.5017,0.7203,0.3957,-0.1462,0.4421,-0.0831,0.1949,851.6543,12.6,44.16,-40.5,176.85,56.753,18.118,49.17440526,-121.6786791,0
9.007,-0.1642,-0.8053,0.5017,0.7203,0.3957,-0.1462,0.3963,0.1545,0.2003,851.6543,12.6,44.16,-40.5,176.85,56.753,18.118,49.17440526,-121.6786791,0
9.027,-0.1642,-0.8053,0.5017,1.0319,-0.0427,-0.3352,0.3963,0.1545,0.2003,851.6543,12.6,44.16,-40.5,176.85,56.753,18.118,49.17440526,-121.6786791,0
9.046,-0.2213,-0.8849,0.5003,1.0319,-0.0427,-0.3352,0.3963,0.1545,0.2003,851.6543,12.6,44.16,-40.5,158.922,58.276,23.866,49.17440526,-121.6786791,0
9.048,-0.2213,-0.8849,0.5003,1.0319,-0.0427,-0.3352,0.3963,0.1545,0.2003,851.6543,11.76,43.08,-40.8,156.34,58.276,23.866,49.17440526,-121.6786791,0
9.05,-0.2213,-0.8849,0.5003,1.0319,-0.0427,-0.3352,0.5582,0.4762,0.1481,851.6543,11.76,43.08,-40.8,156.34,58.276,23.866,49.17440526,-121.6786791,0
9.064,-0.2213,-0.8849,0.5003,1.0319,-0.0427,-0.3352,0.5582,0.4762,0.1481,851.6497,11.76,43.08,-40.8,156.34,58.276,23.866,49.17440526,-121.6786791,0
9.068,-0.2213,-0.8849,0.5003,1.0319,-0.0427,-0.3352,0.5582,0.4762,0.1481,851.6497,11.76,43.08,-40.8,156.34,58.276,23.866,49.17440526,-121.6786791,0
9.087,-0.2213,-0.8849,0.5003,0.6102,-0.9653,-0.4868,0.5582,0.4762,0.1481,851.6497,11.76,43.08,-40.8,156.34,58.276,23.866,49.17440526,-121.6786791,0
9.108,-0.2311,-0.7941,0.5071,0.6102,-0.9653,-0.4868,0.5582,0.4762,0.1481,851.6497,11.76,43.08,-40.8,147.153,54.937,24.501,49.17440526,-121.6786791,0
9.111,-0.2311,-0.7941,0.5071,0.6102,-0.9653,-0.4868,0.5582,0.4762,0.1481,851.6497,10.98,41.88,-41.22,145.591,54.937,24.501,49.17440526,-121.6786791,0
9.113,-0.2311,-0.7941,0.5071,0.6102,-0.9653,-0.4868,0.4655,0.5806,0.2312,851.6497,10.98,41.88,-41.22,145.591,54.937,24.501,49.17440526,-121.6786791,0
9.146,-0.2311,-0.7941,0.5071,0.7267,-0.2234,-0.5159,0.4655,0.5806,0.2312,851.6497,10.98,41.88,-41.22,145.591,54.937,24.501,49.17440526,-121.6786791,0
9.165,-0.2311,-0.625,0.4768,0.7267,-0.2234,-0.5159,0.4655,0.5806,0.2312,851.6497,10.98,41.88,-41.22,120.984,49.708,25.859,49.17440526,-121.6786791,0
9.172,-0.2311,-0.625,0.4768,0.7267,-0.2234,-0.5159,0.4655,0.5806,0.2312,851.6497,10.2,40.44,-41.64,122.951,49.708,25.859,49.17440526,-121.6786791,0
9.182,-0.2311,-0.625,0.4768,0.7267,-0.2234,-0.5159,0.212,0.4133,0.0458,851.6497,10.2,40.44,-41.64,122.951,49.708,25.859,49.17440526,-121.6786791,0
9.205,-0.2311,-0.625,0.4768,0.9162,1.3194,-0.8617,0.212,0.4133,0.0458,851.6497,10.2,40.44,-41.64,122.951,49.708,25.859,49.17440526,-121.6786791,0
9.225,0.1886,-0.4696,0.1846,0.9162,1.3194,-0.8617,0.212,0.4133,0.0458,851.6497,10.2,40.44,-41.64,-88.798,60.663,-45.609,49.17440526,-121.6786791,0
9.227,0.1886,-0.4696,0.1846,0.9162,1.3194,-0.8617,0.212,0.4133,0.0458,851.6497,9.54,38.88,-42.18,-91.137,60.663,-45.609,49.17440526,-121.6786791,0
9.229,0.1886,-0.4696,0.1846,0.9162,1.3194,-0.8617,-0.0607,0.016,-0.5337,851.6497,9.54,38.88,-42.18,-91.137,60.663,-45.609,49.17440526,-121.6786791,0
9.244,0.1886,-0.4696,0.1846,0.9162,1.3194,-0.8617,-0.0607,0.016,-0.5337,851.6729,9.54,38.88,-42.18,-91.137,60.663,-45.609,49.17440526,-121.6786791,0
9.246,0.1886,-0.4696,0.1846,0.9162,1.3194,-0.8617,-0.0607,0.016,-0.5337,851.6729,9.54,38.88,-42.18,-91.137,60.663,-45.609,49.17440526,-121.6786791,0
9.266,0.1886,-0.4696,0.1846,4.7792,2.9638,-3.6983,-0.0607,0.016,-0.5337,851.6729,9.54,38.88,-42.18,-91.137,60.663,-45.609,49.17440526,-121.6786791,0
9.289,-0.4852,-0.7252,0.428,4.7792,2.9638,-3.6983,-0.0607,0.016,-0.5337,851.6729,9.54,38.88,-42.18,90.623,48.262,48.586,49.17440526,-121.6786791,0
9.292,-0.4852,-0.7252,0.428,4.7792,2.9638,-3.6983,-0.0607,0.016,-0.5337,851.6729,9,37.2,-42.84,93.099,48.262,48.586,49.17440526,-121.6786791,0
9.295,-0.4852,-0.7252,0.428,4.7792,2.9638,-3.6983,0.9598,2.302,-0.4677,851.6729,9,37.2,-42.84,93.099,48.262,48.586,49.17440526,-121.6786791,0
9.332,-0.4852,-0.7252,0.428,-1.2833,0.0017,-1.6017,0.9598,2.302,-0.4677,851.6729,9,37.2,-42.84,93.099,48.262,48.586,49.17440526,-121.6786791,0
9.35,-0.0147,-0.6025,0.4065,-1.2833,0.0017,-1.6017,0.9598,2.302,-0.4677,851.6729,9,37.2,-42.84,-153.495,55.979,2.065,49.17440526,-121.6786791,0
9.359,-0.0147,-0.6025,0.4065,-1.2833,0.0017,-1.6017,0.9598,2.302,-0.4677,851.6729,8.64,35.82,-43.38,-156.352,55.979,2.065,49.17440526,-121.6786791,0
9.361,-0.0147,-0.6025,0.4065,-1.2833,0.0017,-1.6017,-1.502,3.052,-0.865,851.6729,8.64,35.82,-43.38,-156.352,55.979,2.065,49.17440526,-121.6786791,0
9.385,-0.0147,-0.6025,0.4065,3.8949,1.8416,-0.4725,-1.502,3.052,-0.865,851.6729,8.64,35.82,-43.38,-156.352,55.979,2.065,49.17440526,-121.6786791,0
9.407,-0.7637,-0.4828,-0.4183,3.8949,1.8416,-0.4725,-1.502,3.052,-0.865,851.6729,8.64,35.82,-43.38,48.178,29.007,118.711,49.17440526,-121.6786791,0
9.411,-0.7637,-0.4828,-0.4183,3.8949,1.8416,-0.4725,-1.502,3.052,-0.865,851.6729,8.34,35.1,-43.92,48.684,29.007,118.711,49.17440526,-121.6786791,0
9.414,-0.7637,-0.4828,-0.4183,3.8949,1.8416,-0.4725,-1.5052,1.6096,-0.2258,851.6729,8.34,35.1,-43.92,48.684,29.007,118.711,49.17440526,-121.6786791,0
9.426,-0.7637,-0.4828,-0.4183,3.8949,1.8416,-0.4725,-1.5052,1.6096,-0.2258,851.5864,8.34,35.1,-43.92,48.684,29.007,118.711,49.17440526,-121.6786791,0
9.429,-0.7637,-0.4828,-0.4183,3.8949,1.8416,-0.4725,-1.5052,1.6096,-0.2258,851.5864,8.34,35.1,-43.92,48.684,29.007,118.711,49.17440526,-121.6786791,0
9.452,-0.7637,-0.4828,-0.4183,-3.2147,3.4527,-7.4098,-1.5052,1.6096,-0.2258,851.5864,8.34,35.1,-43.92,48.684,29.007,118.711,49.17440526,-121.6786791,0
9.465,-0.1608,-1.0017,0.6454,-3.2147,3.4527,-7.4098,-1.5052,1.6096,-0.2258,851.5864,8.34,35.1,-43.92,171.92,56.417,13.986,49.17440526,-121.6786791,0
9.472,-0.1608,-1.0017,0.6454,-3.2147,3.4527,-7.4098,-1.5052,1.6096,-0.2258,851.5864,8.04,34.38,-44.34,171.02,56.417,13.986,49.17440526,-121.6786791,0
9.477,-0.1608,-1.0017,0.6454,-3.2147,3.4527,-7.4098,-1.6022,0.7617,-0.0607,851.5864,8.04,34.38,-44.34,171.02,56.417,13.986,49.17440526,-121.6786791,0
9.503,-0.1608,-1.0017,0.6454,2.8487,-1.403,3.9156,-1.6022,0.7617,-0.0607,851.5864,8.04,34.38,-44.34,171.02,56.417,13.986,49.17440526,-121.6786791,0
9.523,-0.5917,-1.8426,1.1047,2.8487,-1.403,3.9156,-1.6022,0.7617,-0.0607,851.5864,8.04,34.38,-44.34,139.342,55.78,28.175,49.17440526,-121.6786791,0
9.525,-0.5917,-1.8426,1.1047,2.8487,-1.403,3.9156,-1.6022,0.7617,-0.0607,851.5864,7.98,33.9,-44.46,139.699,55.78,28.175,49.17440526,-121.6786791,0
9.527,-0.5917,-1.8426,1.1047,2.8487,-1.403,3.9156,-0.2088,0.1321,0.1087,851.5864,7.98,33.9,-44.46,139.699,55.78,28.175,49.17440526,-121.6786791,0
9.563,-0.5917,-1.8426,1.1047,-1.668,-9.5433,8.2545,-0.2088,0.1321,0.1087,851.5864,7.98,33.9,-44.46,139.699,55.78,28.175,49.17440526,-121.6786791,0
9.593,-0.1016,-1.161,0.406,-1.668,-9.5433,8.2545,-0.2088,0.1321,0.1087,851.5864,7.98,33.9,-44.46,174.352,70.177,14.054,49.17440526,-121.6786791,0
9.6,-0.1016,-1.161,0.406,-1.668,-9.5433,8.2545,-0.2088,0.1321,0.1087,851.5864,7.92,33.36,-43.98,174.411,70.177,14.054,49.17440526,-121.6786791,0
9.607,-0.1016,-1.161,0.406,-1.668,-9.5433,8.2545,1.7833,0.441,-0.457,851.5864,7.92,33.36,-43.98,174.411,70.177,14.054,49.17440526,-121.6786791,0
9.609,-0.1016,-1.161,0.406,-1.668,-9.5433,8.2545,1.7833,0.441,-0.457,851.6658,7.92,33.36,-43.98,174.411,70.177,14.054,49.17440526,-121.6786791,0
9.611,-0.1016,-1.161,0.406,-1.668,-9.5433,8.2545,1.7833,0.441,-0.457,851.6658,7.92,33.36,-43.98,174.411,70.177,14.054,49.17440526,-121.6786791,0
9.623,-0.1016,-1.161,0.406,2.7534,-2.9199,0.7266,1.7833,0.441,-0.457,851.6658,7.92,33.36,-43.98,174.411,70.177,14.054,49.17440526,-121.6786791,0
9.643,-0.0112,-0.4809,0.3205,2.7534,-2.9199,0.7266,1.7833,0.441,-0.457,851.6658,7.92,33.36,-43.98,-160.787,56.302,2.008,49.17440526,-121.6786791,0
9.644,-0.0112,-0.4809,0.3205,2.7534,-2.9199,0.7266,1.7833,0.441,-0.457,851.6658,8.04,32.88,-43.44,-160.221,56.302,2.008,49.17440526,-121.6786791,0
9.647,-0.0112,-0.4809,0.3205,2.7534,-2.9199,0.7266,1.6384,1.1089,-1.2804,851.6658,8.04,32.88,-43.44,-160.221,56.302,2.008,49.17440526,-121.6786791,0
9.688,-0.0112,-0.4809,0.3205,3.0872,3.6891,-0.779,1.6384,1.1089,-1.2804,851.6658,8.04,32.88,-43.44,-160.221,56.302,2.008,49.17440526,-121.6786791,0
9.709,0.0454,-0.623,0.0942,3.0872,3.6891,-0.779,1.6384,1.1089,-1.2804,851.6658,8.04,32.88,-43.44,-138.681,80.468,-25.742,49.17440526,-121.6786791,0
9.713,0.0454,-0.623,0.0942,3.0872,3.6891,-0.779,1.6384,1.1089,-1.2804,851.6658,8.22,32.34,-42.84,-138.286,80.468,-25.742,49.17440526,-121.6786791,0
9.718,0.0454,-0.623,0.0942,3.0872,3.6891,-0.779,0.4186,2.3681,-0.1417,851.6658,8.22,32.34,-42.84,-138.286,80.468,-25.742,49.17440526,-121.6786791,0
9.75,0.0454,-0.623,0.0942,3.9662,2.2491,-2.8138,0.4186,2.3681,-0.1417,851.6658,8.22,32.34,-42.84,-138.286,80.468,-25.742,49.17440526,-121.6786791,0
9.768,-0.0967,-0.97,-0.0831,3.9662,2.2491,-2.8138,0.4186,2.3681,-0.1417,851.6658,8.22,32.34,-42.84,55.808,82.508,130.67,49.17440526,-121.6786791,0
9.772,-0.0967,-0.97,-0.0831,3.9662,2.2491,-2.8138,0.4186,2.3681,-0.1417,851.6658,8.4,31.8,-42.12,56.207,82.508,130.67,49.17440526,-121.6786791,0
9.777,-0.0967,-0.97,-0.0831,3.9662,2.2491,-2.8138,-0.2844,3.4035,0.881,851.6658,8.4,31.8,-42.12,56.207,82.508,130.67,49.17440526,-121.6786791,0
9.792,-0.0967,-0.97,-0.0831,3.9662,2.2491,-2.8138,-0.2844,3.4035,0.881,851.3037,8.4,31.8,-42.12,56.207,82.508,130.67,49.17440526,-121.6786791,0
9.798,-0.0967,-0.97,-0.0831,3.9662,2.2491,-2.8138,-0.2844,3.4035,0.881,851.3037,8.4,31.8,-42.12,56.207,82.508,130.67,49.17440526,-121.6786791,0
9.804,-0.0967,-0.97,-0.0831,3.5673,-1.2483,-3.5711,-0.2844,3.4035,0.881,851.3037,8.4,31.8,-42.12,56.207,82.508,130.67,49.17440526,-121.6786791,0
9.824,-0.3391,-1.1532,-0.239,3.5673,-1.2483,-3.5711,-0.2844,3.4035,0.881,851.3037,8.4,31.8,-42.12,55.353,70.214,125.176,49.17440526,-121.6786791,0
9.829,-0.3391,-1.1532,-0.239,3.5673,-1.2483,-3.5711,-0.2844,3.4035,0.881,851.3037,8.82,31.32,-40.8,55.986,70.214,125.176,49.17440526,-121.6786791,0
9.833,-0.3391,-1.1532,-0.239,3.5673,-1.2483,-3.5711,0.4932,3.6752,1.078,851.3037,8.82,31.32,-40.8,55.986,70.214,125.176,49.17440526,-121.6786791,0
9.873,-0.3391,-1.1532,-0.239,2.1562,-3.361,-4.1031,0.4932,3.6752,1.078,851.3037,8.82,31.32,-40.8,55.986,70.214,125.176,49.17440526,-121.6786791,0
9.89,-0.3801,-0.9607,0.0571,2.1562,-3.361,-4.1031,0.4932,3.6752,1.078,851.3037,8.82,31.32,-40.8,93.064,68.192,81.457,49.17440526,-121.6786791,0
9.898,-0.3801,-0.9607,0.0571,2.1562,-3.361,-4.1031,0.4932,3.6752,1.078,851.3037,9.48,30.72,-38.64,94.073,68.192,81.457,49.17440526,-121.6786791,0
9.904,-0.3801,-0.9607,0.0571,2.1562,-3.361,-4.1031,1.8802,3.6485,-0.2226,851.3037,9.48,30.72,-38.64,94.073,68.192,81.457,49.17440526,-121.6786791,0
9.93,-0.3801,-0.9607,0.0571,1.9996,-1.581,-0.8648,1.8802,3.6485,-0.2226,851.3037,9.48,30.72,-38.64,94.073,68.192,81.457,49.17440526,-121.6786791,0
9.948,-0.3806,-0.8458,-0.2038,1.9996,-1.581,-0.8648,1.8802,3.6485,-0.2226,851.3037,9.48,30.72,-38.64,59.425,62.958,118.167,49.17440526,-121.6786791,0
9.951,-0.3806,-0.8458,-0.2038,1.9996,-1.581,-0.8648,1.8802,3.6485,-0.2226,851.3037,10.32,30.12,-35.94,60.477,62.958,118.167,49.17440526,-121.6786791,0
9.954,-0.3806,-0.8458,-0.2038,1.9996,-1.581,-0.8648,1.4978,4.0054,-0.2887,851.3037,10.32,30.12,-35.94,60.477,62.958,118.167,49.17440526,-121.6786791,0
9.964,-0.3806,-0.8458,-0.2038,1.9996,-1.581,-0.8648,1.4978,4.0054,-0.2887,851.5803,10.32,30.12,-35.94,60.477,62.958,118.167,49.17440526,-121.6786791,0
9.969,-0.3806,-0.8458,-0.2038,1.9996,-1.581,-0.8648,1.4978,4.0054,-0.2887,851.5803,10.32,30.12,-35.94,60.477,62.958,118.167,49.17440526,-121.6786791,0
9.986,-0.3806,-0.8458,-0.2038,2.0766,-0.4195,-2.7159,1.4978,4.0054,-0.2887,851.5803,10.32,30.12,-35.94,60.477,62.958,118.167,49.17440526,-121.6786791,0
10.005,-0.5873,-0.9856,-0.559,2.0766,-0.4195,-2.7159,1.4978,4.0054,-0.2887,851.5803,10.32,30.12,-35.94,45.566,50.556,133.587,49.17440526,-121.6786791,0
10.01,-0.5873,-0.9856,-0.559,2.0766,-0.4195,-2.7159,1.4978,4.0054,-0.2887,851.5803,11.16,29.64,-32.94,46.325,50.556,133.587,49.17440526,-121.6786791,0
10.013,-0.5873,-0.9856,-0.559,2.0766,-0.4195,-2.7159,1.1398,3.9106,0.0511,851.5803,11.16,29.64,-32.94,46.325,50.556,133.587,49.17440526,-121.6786791,0
10.046,-0.5873,-0.9856,-0.559,0.0945,-1.7913,-5.2577,1.1398,3.9106,0.0511,851.5803,11.16,29.64,-32.94,46.325,50.556,133.587,49.17440526,-121.6786791,0
10.069,-0.9313,-1.053,-0.8287,0.0945,-1.7913,-5.2577,1.1398,3.9106,0.0511,851.5803,11.16,29.64,-32.94,45.571,40.187,131.665,49.17440526,-121.6786791,0
10.072,-0.9313,-1.053,-0.8287,0.0945,-1.7913,-5.2577,1.1398,3.9106,0.0511,851.5803,11.88,29.22,-29.52,45.669,40.187,131.665,49.17440526,-121.6786791,0
10.076,-0.9313,-1.053,-0.8287,0.0945,-1.7913,-5.2577,1.3667,2.987,0.4325,851.5803,11.88,29.22,-29.52,45.669,40.187,131.665,49.17440526,-121.6786791,0
10.109,-0.9313,-1.053,-0.8287,-3.1778,-2.567,-7.2986,1.3667,2.987,0.4325,851.5803,11.88,29.22,-29.52,45.669,40.187,131.665,49.17440526,-121.6786791,0
10.131,-0.9469,-0.5649,-0.7735,-3.1778,-2.567,-7.2986,1.3667,2.987,0.4325,851.5803,11.88,29.22,-29.52,44.885,24.797,129.245,49.17440526,-121.6786791,0
10.139,-0.9469,-0.5649,-0.7735,-3.1778,-2.567,-7.2986,1.3667,2.987,0.4325,851.5803,12.42,29.1,-25.86,43.637,24.797,129.245,49.17440526,-121.6786791,0
10.154,-0.9469,-0.5649,-0.7735,-3.1778,-2.567,-7.2986,2.024,1.3816,0.0511,851.5803,12.42,29.1,-25.86,43.637,24.797,129.245,49.17440526,-121.6786791,0
10.159,-0.9469,-0.5649,-0.7735,-3.1778,-2.567,-7.2986,2.024,1.3816,0.0511,851.676,12.42,29.1,-25.86,43.637,24.797,129.245,49.17440526,-121.6786791,0
10.166,-0.9469,-0.5649,-0.7735,-3.1778,-2.567,-7.2986,2.024,1.3816,0.0511,851.676,12.42,29.1,-25.86,43.637,24.797,129.245,49.17440526,-121.6786791,0
10.168,-0.9469,-0.5649,-0.7735,-3.2951,2.2122,-7.0175,2.024,1.3816,0.0511,851.676,12.42,29.1,-25.86,43.637,24.797,129.245,49.17440526,-121.6786791,0
10.184,-0.7144,-0.387,-0.3685,-3.2951,2.2122,-7.0175,2.024,1.3816,0.0511,851.676,12.42,29.1,-25.86,47.18,25.712,117.285,49.17440526,-121.6786791,0
10.187,-0.7144,-0.387,-0.3685,-3.2951,2.2122,-7.0175,2.024,1.3816,0.0511,851.676,12.9,29.16,-22.14,44.875,25.712,117.285,49.17440526,-121.6786791,0
10.189,-0.7144,-0.387,-0.3685,-3.2951,2.2122,-7.0175,2.3638,0.1981,-0.6956,851.676,12.9,29.16,-22.14,44.875,25.712,117.285,49.17440526,-121.6786791,0
10.225,-0.7144,-0.387,-0.3685,-1.2847,4.1657,-4.0056,2.3638,0.1981,-0.6956,851.676,12.9,29.16,-22.14,44.875,25.712,117.285,49.17440526,-121.6786791,0
10.249,-0.5106,-0.2571,-0.1486,-1.2847,4.1657,-4.0056,2.3638,0.1981,-0.6956,851.676,12.9,29.16,-22.14,46.547,25.8,106.227,49.17440526,-121.6786791,0
10.252,-0.5106,-0.2571,-0.1486,-1.2847,4.1657,-4.0056,2.3638,0.1981,-0.6956,851.676,13.38,29.34,-18.48,42.958,25.8,106.227,49.17440526,-121.6786791,0
10.255,-0.5106,-0.2571,-0.1486,-1.2847,4.1657,-4.0056,1.1185,0.1513,-1.0493,851.676,13.38,29.34,-18.48,42.958,25.8,106.227,49.17440526,-121.6786791,0
10.287,-0.5106,-0.2571,-0.1486,0.3932,5.6282,-2.268,1.1185,0.1513,-1.0493,851.676,13.38,29.34,-18.48,42.958,25.8,106.227,49.17440526,-121.6786791,0
10.306,-0.4915,-0.3416,-0.2854,0.3932,5.6282,-2.268,1.1185,0.1513,-1.0493,851.676,13.38,29.34,-18.48,43.444,31.005,120.141,49.17440526,-121.6786791,0
10.309,-0.4915,-0.3416,-0.2854,0.3932,5.6282,-2.268,1.1185,0.1513,-1.0493,851.676,13.56,30,-15.3,40.3,31.005,120.141,49.17440526,-121.6786791,0
10.312,-0.4915,-0.3416,-0.2854,0.3932,5.6282,-2.268,-0.6008,0.3686,-0.783,851.676,13.56,30,-15.3,40.3,31.005,120.141,49.17440526,-121.6786791,0
