time,gFx,gFy,gFz,ax,ay,az,wx,wy,wz,p,Bx,By,Bz,Azimuth,Pitch,Roll,Latitude,Longitude,Speed (m/s)
0.017,0.429,0.3591,0.5692,1.5805,-1.834,-1.6089,0.1949,-1.452,-0.5348,853.2373,3.42,-42,-80.46,-100.548,-26.738,-37.006,49.17477384,-121.6800015,0
0.018,0.429,0.3591,0.5692,1.5805,-1.834,-1.6089,0.1949,-1.452,-0.5348,853.2373,3.3,-41.88,-80.58,-100.355,-26.738,-37.006,49.17477384,-121.6800015,0
0.024,0.429,0.3591,0.5692,1.5805,-1.834,-1.6089,-0.2908,-0.2802,-0.196,853.2373,3.3,-41.88,-80.58,-100.355,-26.738,-37.006,49.17477384,-121.6800015,0
0.025,0.429,0.3591,0.5692,1.2655,-0.7101,-2.7678,-0.2908,-0.2802,-0.196,853.2373,3.3,-41.88,-80.58,-100.355,-26.738,-37.006,49.17477384,-121.6800015,0
0.052,0.429,0.3591,0.5692,1.2655,-0.7101,-2.7678,-0.2908,-0.2802,-0.196,853.3003,3.3,-41.88,-80.58,-100.355,-26.738,-37.006,49.17477384,-121.6800015,0
0.054,0.429,0.3591,0.5692,1.2655,-0.7101,-2.7678,-0.2908,-0.2802,-0.196,853.3003,3.3,-41.88,-80.58,-100.355,-26.738,-37.006,49.17477384,-121.6800015,0
0.078,0.2878,0.3556,0.7348,1.2655,-0.7101,-2.7678,-0.2908,-0.2802,-0.196,853.3003,3.3,-41.88,-80.58,-103.593,-24.26,-21.388,49.17477384,-121.6800015,0
0.079,0.2878,0.3556,0.7348,1.2655,-0.7101,-2.7678,-0.2908,-0.2802,-0.196,853.3003,3.12,-41.76,-80.58,-103.432,-24.26,-21.388,49.17477384,-121.6800015,0
0.082,0.2878,0.3556,0.7348,1.2655,-0.7101,-2.7678,-0.1534,-0.0916,-0.3398,853.3003,3.12,-41.76,-80.58,-103.432,-24.26,-21.388,49.17477384,-121.6800015,0
0.083,0.2878,0.3556,0.7348,-0.3208,-0.583,-1.1506,-0.1534,-0.0916,-0.3398,853.3003,3.12,-41.76,-80.58,-103.432,-24.26,-21.388,49.17477384,-121.6800015,0
0.136,0.2477,0.4456,0.7832,-0.3208,-0.583,-1.1506,-0.1534,-0.0916,-0.3398,853.3003,3.12,-41.76,-80.58,-91.104,-28.476,-17.553,49.17477384,-121.6800015,0
0.138,0.2477,0.4456,0.7832,-0.3208,-0.583,-1.1506,-0.1534,-0.0916,-0.3398,853.3003,2.88,-41.64,-80.64,-90.758,-28.476,-17.553,49.17477384,-121.6800015,0
0.141,0.2477,0.4456,0.7832,-0.3208,-0.583,-1.1506,-0.6242,0.1555,-0.391,853.3003,2.88,-41.64,-80.64,-90.758,-28.476,-17.553,49.17477384,-121.6800015,0
0.15,0.2477,0.4456,0.7832,-0.6795,0.2775,-0.6792,-0.6242,0.1555,-0.391,853.3003,2.88,-41.64,-80.64,-90.758,-28.476,-17.553,49.17477384,-121.6800015,0
0.198,0.1564,0.4319,0.8731,-0.6795,0.2775,-0.6792,-0.6242,0.1555,-0.391,853.3003,2.88,-41.64,-80.64,-99.69,-25.962,-10.153,49.17477384,-121.6800015,0
0.2,0.1564,0.4319,0.8731,-0.6795,0.2775,-0.6792,-0.6242,0.1555,-0.391,853.3003,2.58,-41.52,-80.7,-99.33,-25.962,-10.153,49.17477384,-121.6800015,0
0.202,0.1564,0.4319,0.8731,-0.6795,0.2775,-0.6792,-0.2684,0.5007,-0.2834,853.3003,2.58,-41.52,-80.7,-99.33,-25.962,-10.153,49.17477384,-121.6800015,0
0.203,0.1564,0.4319,0.8731,-1.1209,0.3252,-0.0382,-0.2684,0.5007,-0.2834,853.3003,2.58,-41.52,-80.7,-99.33,-25.962,-10.153,49.17477384,-121.6800015,0
0.231,0.1564,0.4319,0.8731,-1.1209,0.3252,-0.0382,-0.2684,0.5007,-0.2834,853.2241,2.58,-41.52,-80.7,-99.33,-25.962,-10.153,49.17477384,-121.6800015,0
0.232,0.1564,0.4319,0.8731,-1.1209,0.3252,-0.0382,-0.2684,0.5007,-0.2834,853.2241,2.58,-41.52,-80.7,-99.33,-25.962,-10.153,49.17477384,-121.6800015,0
0.256,0.384,0.4905,0.686,-1.1209,0.3252,-0.0382,-0.2684,0.5007,-0.2834,853.2241,2.58,-41.52,-80.7,-88.102,-31.962,-29.244,49.17477384,-121.6800015,0
0.258,0.384,0.4905,0.686,-1.1209,0.3252,-0.0382,-0.2684,0.5007,-0.2834,853.2241,2.1,-41.46,-80.76,-87.803,-31.962,-29.244,49.17477384,-121.6800015,0
0.26,0.384,0.4905,0.686,-1.1209,0.3252,-0.0382,-0.1886,-0.0799,-0.098,853.2241,2.1,-41.46,-80.76,-87.803,-31.962,-29.244,49.17477384,-121.6800015,0
0.262,0.384,0.4905,0.686,1.6032,0.9155,-2.0161,-0.1886,-0.0799,-0.098,853.2241,2.1,-41.46,-80.76,-87.803,-31.962,-29.244,49.17477384,-121.6800015,0
0.315,0.1476,0.4983,0.8237,1.6032,0.9155,-2.0161,-0.1886,-0.0799,-0.098,853.2241,2.1,-41.46,-80.76,-73.404,-30.773,-10.156,49.17477384,-121.6800015,0
0.317,0.1476,0.4983,0.8237,1.6032,0.9155,-2.0161,-0.1886,-0.0799,-0.098,853.2241,1.62,-41.46,-80.82,-72.706,-30.773,-10.156,49.17477384,-121.6800015,0
0.319,0.1476,0.4983,0.8237,1.6032,0.9155,-2.0161,0.8181,-0.032,-0.2152,853.2241,1.62,-41.46,-80.82,-72.706,-30.773,-10.156,49.17477384,-121.6800015,0
0.321,0.1476,0.4983,0.8237,-0.9063,1.0356,-0.6354,0.8181,-0.032,-0.2152,853.2241,1.62,-41.46,-80.82,-72.706,-30.773,-10.156,49.17477384,-121.6800015,0
0.379,0.2585,0.6058,0.7377,-0.9063,1.0356,-0.6354,0.8181,-0.032,-0.2152,853.2241,1.62,-41.46,-80.82,-64.255,-37.775,-19.308,49.17477384,-121.6800015,0
0.381,0.2585,0.6058,0.7377,-0.9063,1.0356,-0.6354,0.8181,-0.032,-0.2152,853.2241,1.14,-41.4,-80.88,-63.61,-37.775,-19.308,49.17477384,-121.6800015,0
0.382,0.2585,0.6058,0.7377,-0.9063,1.0356,-0.6354,0.343,0.8448,-0.2301,853.2241,1.14,-41.4,-80.88,-63.61,-37.775,-19.308,49.17477384,-121.6800015,0
0.384,0.2585,0.6058,0.7377,0.3176,1.5387,-1.2505,0.343,0.8448,-0.2301,853.2241,1.14,-41.4,-80.88,-63.61,-37.775,-19.308,49.17477384,-121.6800015,0
0.41,0.2585,0.6058,0.7377,0.3176,1.5387,-1.2505,0.343,0.8448,-0.2301,853.2332,1.14,-41.4,-80.88,-63.61,-37.775,-19.308,49.17477384,-121.6800015,0
0.412,0.2585,0.6058,0.7377,0.3176,1.5387,-1.2505,0.343,0.8448,-0.2301,853.2332,1.14,-41.4,-80.88,-63.61,-37.775,-19.308,49.17477384,-121.6800015,0
0.436,0.0762,0.6996,1.1726,0.3176,1.5387,-1.2505,0.343,0.8448,-0.2301,853.2332,1.14,-41.4,-80.88,-48.344,-30.769,-3.719,49.17477384,-121.6800015,0
0.437,0.0762,0.6996,1.1726,0.3176,1.5387,-1.2505,0.343,0.8448,-0.2301,853.2332,0.66,-41.34,-80.94,-45.645,-30.769,-3.719,49.17477384,-121.6800015,0
0.439,0.0762,0.6996,1.1726,0.3176,1.5387,-1.2505,0.4953,1.0077,-0.4453,853.2332,0.66,-41.34,-80.94,-45.645,-30.769,-3.719,49.17477384,-121.6800015,0
0.442,0.0762,0.6996,1.1726,-1.0559,2.2365,3.0313,0.4953,1.0077,-0.4453,853.2332,0.66,-41.34,-80.94,-45.645,-30.769,-3.719,49.17477384,-121.6800015,0
0.496,0.0352,0.5614,0.7265,-1.0559,2.2365,3.0313,0.4953,1.0077,-0.4453,853.2332,0.66,-41.34,-80.94,-15.363,-37.66,-2.772,49.17477384,-121.6800015,0
0.497,0.0352,0.5614,0.7265,-1.0559,2.2365,3.0313,0.4953,1.0077,-0.4453,853.2332,0.48,-41.34,-80.88,-14.803,-37.66,-2.772,49.17477384,-121.6800015,0
0.5,0.0352,0.5614,0.7265,-1.0559,2.2365,3.0313,0.1598,1.42,-0.2205,853.2332,0.48,-41.34,-80.88,-14.803,-37.66,-2.772,49.17477384,-121.6800015,0
0.502,0.0352,0.5614,0.7265,-0.8427,0.4795,-1.2195,0.1598,1.42,-0.2205,853.2332,0.48,-41.34,-80.88,-14.803,-37.66,-2.772,49.17477384,-121.6800015,0
0.562,-0.0577,0.4465,0.9249,-0.8427,0.4795,-1.2195,0.1598,1.42,-0.2205,853.2332,0.48,-41.34,-80.88,115.661,-25.728,3.567,49.17477384,-121.6800015,0
0.572,-0.0577,0.4465,0.9249,-0.8427,0.4795,-1.2195,0.1598,1.42,-0.2205,853.2332,0.36,-41.34,-80.82,115.396,-25.728,3.567,49.17477384,-121.6800015,0
0.574,-0.0577,0.4465,0.9249,-0.8427,0.4795,-1.2195,-0.2759,1.4253,-0.2344,853.2332,0.36,-41.34,-80.82,115.396,-25.728,3.567,49.17477384,-121.6800015,0
0.576,-0.0577,0.4465,0.9249,-1.0016,-0.6461,0.6521,-0.2759,1.4253,-0.2344,853.2332,0.36,-41.34,-80.82,115.396,-25.728,3.567,49.17477384,-121.6800015,0
0.593,-0.0577,0.4465,0.9249,-1.0016,-0.6461,0.6521,-0.2759,1.4253,-0.2344,853.2009,0.36,-41.34,-80.82,115.396,-25.728,3.567,49.17432897,-121.6804813,0.97000003
0.595,-0.0577,0.4465,0.9249,-1.0016,-0.6461,0.6521,-0.2759,1.4253,-0.2344,853.2009,0.36,-41.34,-80.82,115.396,-25.728,3.567,49.17432897,-121.6804813,0.97000003
0.613,-0.2477,0.3058,0.7583,-1.0016,-0.6461,0.6521,-0.2759,1.4253,-0.2344,853.2009,0.36,-41.34,-80.82,114.074,-20.975,18.092,49.17432897,-121.6804813,0.97000003
0.616,-0.2477,0.3058,0.7583,-1.0016,-0.6461,0.6521,-0.2759,1.4253,-0.2344,853.2009,0.54,-41.4,-80.7,114.404,-20.975,18.092,49.17432897,-121.6804813,0.97000003
0.617,-0.2477,0.3058,0.7583,-1.0016,-0.6461,0.6521,-0.5571,1.632,0.2738,853.2009,0.54,-41.4,-80.7,114.404,-20.975,18.092,49.17432897,-121.6804813,0.97000003
0.618,-0.2477,0.3058,0.7583,-2.1124,-1.8757,-1.0736,-0.5571,1.632,0.2738,853.2009,0.54,-41.4,-80.7,114.404,-20.975,18.092,49.17432897,-121.6804813,0.97000003
0.674,-0.2946,0.2574,0.8101,-2.1124,-1.8757,-1.0736,-0.5571,1.632,0.2738,853.2009,0.54,-41.4,-80.7,123.487,-16.629,19.987,49.17432897,-121.6804813,0.97000003
0.677,-0.2946,0.2574,0.8101,-2.1124,-1.8757,-1.0736,-0.5571,1.632,0.2738,853.2009,1.02,-41.46,-80.52,124.08,-16.629,19.987,49.17432897,-121.6804813,0.97000003
0.678,-0.2946,0.2574,0.8101,-2.1124,-1.8757,-1.0736,-0.7585,1.2868,0.1886,853.2009,1.02,-41.46,-80.52,124.08,-16.629,19.987,49.17432897,-121.6804813,0.97000003
0.68,-0.2946,0.2574,0.8101,-1.7148,-2.0344,-0.6653,-0.7585,1.2868,0.1886,853.2009,1.02,-41.46,-80.52,124.08,-16.629,19.987,49.17432897,-121.6804813,0.97000003
0.748,-0.3894,0.2589,1.1472,-1.7148,-2.0344,-0.6653,-0.7585,1.2868,0.1886,853.2009,1.02,-41.46,-80.52,134.565,-12.063,18.75,49.17432897,-121.6804813,0.97000003
0.754,-0.3894,0.2589,1.1472,-1.7148,-2.0344,-0.6653,-0.7585,1.2868,0.1886,853.2009,1.8,-41.52,-80.34,135.545,-12.063,18.75,49.17432897,-121.6804813,0.97000003
0.756,-0.3894,0.2589,1.1472,-1.7148,-2.0344,-0.6653,-0.2791,1.6352,0.5092,853.2009,1.8,-41.52,-80.34,135.545,-12.063,18.75,49.17432897,-121.6804813,0.97000003
0.758,-0.3894,0.2589,1.1472,-1.9892,-1.5697,2.5268,-0.2791,1.6352,0.5092,853.2009,1.8,-41.52,-80.34,135.545,-12.063,18.75,49.17432897,-121.6804813,0.97000003
0.769,-0.3894,0.2589,1.1472,-1.9892,-1.5697,2.5268,-0.2791,1.6352,0.5092,853.2236,1.8,-41.52,-80.34,135.545,-12.063,18.75,49.17432897,-121.6804813,0.97000003
0.771,-0.3894,0.2589,1.1472,-1.9892,-1.5697,2.5268,-0.2791,1.6352,0.5092,853.2236,1.8,-41.52,-80.34,135.545,-12.063,18.75,49.17432897,-121.6804813,0.97000003
0.8,-0.428,0.3991,0.5833,-1.9892,-1.5697,2.5268,-0.2791,1.6352,0.5092,853.2236,1.8,-41.52,-80.34,95.644,-28.883,36.269,49.17432897,-121.6804813,0.97000003
0.803,-0.428,0.3991,0.5833,-1.9892,-1.5697,2.5268,-0.2791,1.6352,0.5092,853.2236,2.76,-41.52,-80.1,95.53,-28.883,36.269,49.17432897,-121.6804813,0.97000003
0.81,-0.428,0.3991,0.5833,-1.9892,-1.5697,2.5268,0.3728,3.7742,1.1686,853.2236,2.76,-41.52,-80.1,95.53,-28.883,36.269,49.17432897,-121.6804813,0.97000003
0.813,-0.428,0.3991,0.5833,-1.5231,-0.1955,-2.7783,0.3728,3.7742,1.1686,853.2236,2.76,-41.52,-80.1,95.53,-28.883,36.269,49.17432897,-121.6804813,0.97000003
0.857,-0.1803,0.4939,0.2902,-1.5231,-0.1955,-2.7783,0.3728,3.7742,1.1686,853.2236,2.76,-41.52,-80.1,49.974,-55.33,31.854,49.17432897,-121.6804813,0.97000003
0.86,-0.1803,0.4939,0.2902,-1.5231,-0.1955,-2.7783,0.3728,3.7742,1.1686,853.2236,4.02,-41.58,-79.62,48.871,-55.33,31.854,49.17432897,-121.6804813,0.97000003
0.863,-0.1803,0.4939,0.2902,-1.5231,-0.1955,-2.7783,-0.6871,1.9494,0.5284,853.2236,4.02,-41.58,-79.62,48.871,-55.33,31.854,49.17432897,-121.6804813,0.97000003
0.867,-0.1803,0.4939,0.2902,2.5135,0.3187,-4.7327,-0.6871,1.9494,0.5284,853.2236,4.02,-41.58,-79.62,48.871,-55.33,31.854,49.17432897,-121.6804813,0.97000003
0.915,-0.5868,0.5301,0.7812,2.5135,0.3187,-4.7327,-0.6871,1.9494,0.5284,853.2236,4.02,-41.58,-79.62,96.446,-28.481,36.912,49.17432897,-121.6804813,0.97000003
0.917,-0.5868,0.5301,0.7812,2.5135,0.3187,-4.7327,-0.6871,1.9494,0.5284,853.2236,5.7,-41.7,-78.78,96.648,-28.481,36.912,49.17432897,-121.6804813,0.97000003
0.919,-0.5868,0.5301,0.7812,2.5135,0.3187,-4.7327,-1.2442,-0.0277,0.131,853.2236,5.7,-41.7,-78.78,96.648,-28.481,36.912,49.17432897,-121.6804813,0.97000003
0.921,-0.5868,0.5301,0.7812,-0.9332,0.7261,0.3766,-1.2442,-0.0277,0.131,853.2236,5.7,-41.7,-78.78,96.648,-28.481,36.912,49.17432897,-121.6804813,0.97000003
0.951,-0.5868,0.5301,0.7812,-0.9332,0.7261,0.3766,-1.2442,-0.0277,0.131,853.3809,5.7,-41.7,-78.78,96.648,-28.481,36.912,49.17432897,-121.6804813,0.97000003
0.954,-0.5868,0.5301,0.7812,-0.9332,0.7261,0.3766,-1.2442,-0.0277,0.131,853.3809,5.7,-41.7,-78.78,96.648,-28.481,36.912,49.17432897,-121.6804813,0.97000003
0.977,-0.6098,0.4959,1.1716,-0.9332,0.7261,0.3766,-1.2442,-0.0277,0.131,853.3809,5.7,-41.7,-78.78,113.402,-20.578,27.495,49.17432897,-121.6804813,0.97000003
0.991,-0.6098,0.4959,1.1716,-0.9332,0.7261,0.3766,-1.2442,-0.0277,0.131,853.3809,7.5,-41.82,-78,114.881,-20.578,27.495,49.17432897,-121.6804813,0.97000003
0.995,-0.6098,0.4959,1.1716,-0.9332,0.7261,0.3766,-0.5731,-0.1342,0.7531,853.3809,7.5,-41.82,-78,114.881,-20.578,27.495,49.17432897,-121.6804813,0.97000003
0.997,-0.6098,0.4959,1.1716,-1.1197,0.8446,3.9676,-0.5731,-0.1342,0.7531,853.3809,7.5,-41.82,-78,114.881,-20.578,27.495,49.17432897,-121.6804813,0.97000003
1.049,-0.4945,0.5868,0.8775,-1.1197,0.8446,3.9676,-0.5731,-0.1342,0.7531,853.3809,7.5,-41.82,-78,90.138,-30.223,29.402,49.17432897,-121.6804813,0.97000003
1.05,-0.4945,0.5868,0.8775,-1.1197,0.8446,3.9676,-0.5731,-0.1342,0.7531,853.3809,9.36,-41.94,-77.22,90.12,-30.223,29.402,49.17432897,-121.6804813,0.97000003
1.051,-0.4945,0.5868,0.8775,-1.1197,0.8446,3.9676,0.5997,-0.8991,0.2141,853.3809,9.36,-41.94,-77.22,90.12,-30.223,29.402,49.17432897,-121.6804813,0.97000003
1.052,-0.4945,0.5868,0.8775,-0.3218,1.7221,0.8872,0.5997,-0.8991,0.2141,853.3809,9.36,-41.94,-77.22,90.12,-30.223,29.402,49.17432897,-121.6804813,0.97000003
1.093,0.0777,0.5159,1.2542,-0.3218,1.7221,0.8872,0.5997,-0.8991,0.2141,853.3809,9.36,-41.94,-77.22,-124.62,-22.321,-3.545,49.17432897,-121.6804813,0.97000003
1.094,0.0777,0.5159,1.2542,-0.3218,1.7221,0.8872,0.5997,-0.8991,0.2141,853.3809,11.28,-42,-76.44,-122.394,-22.321,-3.545,49.17432897,-121.6804813,0.97000003
1.095,0.0777,0.5159,1.2542,-0.3218,1.7221,0.8872,-0.8416,-1.6586,0.2653,853.3809,11.28,-42,-76.44,-122.394,-22.321,-3.545,49.17432897,-121.6804813,0.97000003
1.096,0.0777,0.5159,1.2542,4.7716,0.6664,4.4925,-0.8416,-1.6586,0.2653,853.3809,11.28,-42,-76.44,-122.394,-22.321,-3.545,49.17432897,-121.6804813,0.97000003
1.128,0.0777,0.5159,1.2542,4.7716,0.6664,4.4925,-0.8416,-1.6586,0.2653,853.1245,11.28,-42,-76.44,-122.394,-22.321,-3.545,49.17432897,-121.6804813,0.97000003
1.129,0.0777,0.5159,1.2542,4.7716,0.6664,4.4925,-0.8416,-1.6586,0.2653,853.1245,11.28,-42,-76.44,-122.394,-22.321,-3.545,49.17432897,-121.6804813,0.97000003
1.151,-0.4578,0.0625,0.8086,4.7716,0.6664,4.4925,-0.8416,-1.6586,0.2653,853.1245,11.28,-42,-76.44,143.086,-3.847,29.519,49.17432897,-121.6804813,0.97000003
1.153,-0.4578,0.0625,0.8086,4.7716,0.6664,4.4925,-0.8416,-1.6586,0.2653,853.1245,13.14,-42.12,-75.66,145.192,-3.847,29.519,49.17432897,-121.6804813,0.97000003
1.158,-0.4578,0.0625,0.8086,4.7716,0.6664,4.4925,-0.8266,0.7137,-1.6725,853.1245,13.14,-42.12,-75.66,145.192,-3.847,29.519,49.17432897,-121.6804813,0.97000003
1.159,-0.4578,0.0625,0.8086,-1.6335,-3.3358,-0.587,-0.8266,0.7137,-1.6725,853.1245,13.14,-42.12,-75.66,145.192,-3.847,29.519,49.17432897,-121.6804813,0.97000003
1.213,-0.7075,-0.3133,0.7969,-1.6335,-3.3358,-0.587,-0.8266,0.7137,-1.6725,853.1245,13.14,-42.12,-75.66,145.516,16.382,41.601,49.17432897,-121.6804813,0.97000003
1.215,-0.7075,-0.3133,0.7969,-1.6335,-3.3358,-0.587,-0.8266,0.7137,-1.6725,853.1245,15,-42.24,-74.88,146.931,16.382,41.601,49.17432897,-121.6804813,0.97000003
1.217,-0.7075,-0.3133,0.7969,-1.6335,-3.3358,-0.587,-2.9359,0.2695,0.0511,853.1245,15,-42.24,-74.88,146.931,16.382,41.601,49.17432897,-121.6804813,0.97000003
1.218,-0.7075,-0.3133,0.7969,-3.1538,-6.0106,-0.7486,-2.9359,0.2695,0.0511,853.1245,15,-42.24,-74.88,146.931,16.382,41.601,49.17432897,-121.6804813,0.97000003
1.274,-0.4613,-0.2458,1.1003,-3.1538,-6.0106,-0.7486,-2.9359,0.2695,0.0511,853.1245,15,-42.24,-74.88,165.017,11.643,22.744,49.17432897,-121.6804813,0.97000003
1.277,-0.4613,-0.2458,1.1003,-3.1538,-6.0106,-0.7486,-2.9359,0.2695,0.0511,853.1245,16.86,-42.06,-74.34,166.823,11.643,22.744,49.17432897,-121.6804813,0.97000003
1.279,-0.4613,-0.2458,1.1003,-3.1538,-6.0106,-0.7486,-2.0869,-1.0621,0.8916,853.1245,16.86,-42.06,-74.34,166.823,11.643,22.744,49.17432897,-121.6804813,0.97000003
1.281,-0.4613,-0.2458,1.1003,-0.6454,-3.664,1.862,-2.0869,-1.0621,0.8916,853.1245,16.86,-42.06,-74.34,166.823,11.643,22.744,49.17432897,-121.6804813,0.97000003
1.311,-0.4613,-0.2458,1.1003,-0.6454,-3.664,1.862,-2.0869,-1.0621,0.8916,853.2061,16.86,-42.06,-74.34,166.823,11.643,22.744,49.17432897,-121.6804813,0.97000003
1.313,-0.4613,-0.2458,1.1003,-0.6454,-3.664,1.862,-2.0869,-1.0621,0.8916,853.2061,16.86,-42.06,-74.34,166.823,11.643,22.744,49.17432897,-121.6804813,0.97000003
1.333,-0.1559,0.0209,1.1228,-0.6454,-3.664,1.862,-2.0869,-1.0621,0.8916,853.2061,16.86,-42.06,-74.34,-170.946,-1.059,7.904,49.17432897,-121.6804813,0.97000003
1.335,-0.1559,0.0209,1.1228,-0.6454,-3.664,1.862,-2.0869,-1.0621,0.8916,853.2061,18.6,-41.52,-74.1,-168.399,-1.059,7.904,49.17432897,-121.6804813,0.97000003
1.337,-0.1559,0.0209,1.1228,-0.6454,-3.664,1.862,-1.8536,-1.371,0.179,853.2061,18.6,-41.52,-74.1,-168.399,-1.059,7.904,49.17432897,-121.6804813,0.97000003
1.338,-0.1559,0.0209,1.1228,1.723,-0.1366,1.7572,-1.8536,-1.371,0.179,853.2061,18.6,-41.52,-74.1,-168.399,-1.059,7.904,49.17432897,-121.6804813,0.97000003
1.393,-0.4016,-0.0973,0.4543,1.723,-0.1366,1.7572,-1.8536,-1.371,0.179,853.2061,18.6,-41.52,-74.1,145.817,9.115,41.476,49.17432897,-121.6804813,0.97000003
1.395,-0.4016,-0.0973,0.4543,1.723,-0.1366,1.7572,-1.8536,-1.371,0.179,853.2061,20.1,-40.44,-74.22,146.155,9.115,41.476,49.17432897,-121.6804813,0.97000003
1.397,-0.4016,-0.0973,0.4543,1.723,-0.1366,1.7572,-1.9484,-0.995,0.0383,853.2061,20.1,-40.44,-74.22,146.155,9.115,41.476,49.17432897,-121.6804813,0.97000003
1.399,-0.4016,-0.0973,0.4543,-1.466,-0.4395,-5.0239,-1.9484,-0.995,0.0383,853.2061,20.1,-40.44,-74.22,146.155,9.115,41.476,49.17432897,-121.6804813,0.97000003
1.454,-0.1007,0.3161,0.7685,-1.466,-0.4395,-5.0239,-1.9484,-0.995,0.0383,853.2061,20.1,-40.44,-74.22,-130.121,-22.185,7.462,49.17432897,-121.6804813,0.97000003
1.455,-0.1007,0.3161,0.7685,-1.466,-0.4395,-5.0239,-1.9484,-0.995,0.0383,853.2061,8.88,-20.82,-21,-151.036,-22.185,7.462,49.17432897,-121.6804813,0.97000003
1.457,-0.1007,0.3161,0.7685,-1.466,-0.4395,-5.0239,-1.6629,-0.5358,0.1012,853.2061,8.88,-20.82,-21,-151.036,-22.185,7.462,49.17432897,-121.6804813,0.97000003
1.459,-0.1007,0.3161,0.7685,0.9725,4.7644,-1.9318,-1.6629,-0.5358,0.1012,853.2061,8.88,-20.82,-21,-151.036,-22.185,7.462,49.17432897,-121.6804813,0.97000003
1.488,-0.1007,0.3161,0.7685,0.9725,4.7644,-1.9318,-1.6629,-0.5358,0.1012,853.3027,8.88,-20.82,-21,-151.036,-22.185,7.462,49.17432897,-121.6804813,0.97000003
1.491,-0.1007,0.3161,0.7685,0.9725,4.7644,-1.9318,-1.6629,-0.5358,0.1012,853.3027,8.88,-20.82,-21,-151.036,-22.185,7.462,49.17432897,-121.6804813,0.97000003
1.512,-0.642,-0.111,0.4446,0.9725,4.7644,-1.9318,-1.6629,-0.5358,0.1012,853.3027,8.88,-20.82,-21,152.367,8.088,55.299,49.17432897,-121.6804813,0.97000003
1.514,-0.642,-0.111,0.4446,0.9725,4.7644,-1.9318,-1.6629,-0.5358,0.1012,853.3027,9.72,-19.2,-21.42,151.069,8.088,55.299,49.17432897,-121.6804813,0.97000003
1.515,-0.642,-0.111,0.4446,0.9725,4.7644,-1.9318,-1.0322,0,-0.163,853.3027,9.72,-19.2,-21.42,151.069,8.088,55.299,49.17432897,-121.6804813,0.97000003
1.517,-0.642,-0.111,0.4446,-4.6224,0.9873,-5.0813,-1.0322,0,-0.163,853.3027,9.72,-19.2,-21.42,151.069,8.088,55.299,49.17432897,-121.6804813,0.97000003
1.574,-0.2155,0.0337,1.2469,-4.6224,0.9873,-5.0813,-1.0322,0,-0.163,853.3027,9.72,-19.2,-21.42,-162.305,-1.523,9.805,49.17432897,-121.6804813,0.97000003
1.576,-0.2155,0.0337,1.2469,-4.6224,0.9873,-5.0813,-1.0322,0,-0.163,853.3027,10.32,-17.22,-22.02,-158.846,-1.523,9.805,49.17432897,-121.6804813,0.97000003
1.578,-0.2155,0.0337,1.2469,-4.6224,0.9873,-5.0813,-1.2165,1.0216,0.245,853.3027,10.32,-17.22,-22.02,-158.846,-1.523,9.805,49.17432897,-121.6804813,0.97000003
1.583,-0.2155,0.0337,1.2469,-0.0483,2.9717,3.0035,-1.2165,1.0216,0.245,853.3027,10.32,-17.22,-22.02,-158.846,-1.523,9.805,49.17432897,-121.6804813,0.97000003
1.633,-0.3376,-0.3392,0.7969,-0.0483,2.9717,3.0035,-1.2165,1.0216,0.245,853.3027,10.32,-17.22,-22.02,-177.903,21.4,22.962,49.17432067,-121.6804923,0.88
1.634,-0.3376,-0.3392,0.7969,-0.0483,2.9717,3.0035,-1.2165,1.0216,0.245,853.3027,10.56,-15.12,-22.68,-177.84,21.4,22.962,49.17432067,-121.6804923,0.88
1.638,-0.3376,-0.3392,0.7969,-0.0483,2.9717,3.0035,-0.6477,1.665,0.7457,853.3027,10.56,-15.12,-22.68,-177.84,21.4,22.962,49.17432067,-121.6804923,0.88
1.639,-0.3376,-0.3392,0.7969,0.3803,-0.13,-0.6972,-0.6477,1.665,0.7457,853.3027,10.56,-15.12,-22.68,-177.84,21.4,22.962,49.17432067,-121.6804923,0.88
1.667,-0.3376,-0.3392,0.7969,0.3803,-0.13,-0.6972,-0.6477,1.665,0.7457,853.3262,10.56,-15.12,-22.68,-177.84,21.4,22.962,49.17432067,-121.6804923,0.88
1.669,-0.3376,-0.3392,0.7969,0.3803,-0.13,-0.6972,-0.6477,1.665,0.7457,853.3262,10.56,-15.12,-22.68,-177.84,21.4,22.962,49.17432067,-121.6804923,0.88
1.691,-0.5213,-0.4887,1.1531,0.3803,-0.13,-0.6972,-0.6477,1.665,0.7457,853.3262,10.56,-15.12,-22.68,-179.31,21.115,24.33,49.17432067,-121.6804923,0.88
1.693,-0.5213,-0.4887,1.1531,0.3803,-0.13,-0.6972,-0.6477,1.665,0.7457,853.3262,10.68,-12.9,-23.34,-179.688,21.115,24.33,49.17432067,-121.6804923,0.88
1.695,-0.5213,-0.4887,1.1531,0.3803,-0.13,-0.6972,-1.5468,-0.1406,1.5457,853.3262,10.68,-12.9,-23.34,-179.688,21.115,24.33,49.17432067,-121.6804923,0.88
1.697,-0.5213,-0.4887,1.1531,-1.2083,-1.1669,3.0639,-1.5468,-0.1406,1.5457,853.3262,10.68,-12.9,-23.34,-179.688,21.115,24.33,49.17432067,-121.6804923,0.88
1.753,-0.321,-0.7012,1.0812,-1.2083,-1.1669,3.0639,-1.5468,-0.1406,1.5457,853.3262,10.68,-12.9,-23.34,-171.609,31.87,16.536,49.17432067,-121.6804923,0.88
1.755,-0.321,-0.7012,1.0812,-1.2083,-1.1669,3.0639,-1.5468,-0.1406,1.5457,853.3262,10.62,-10.56,-24,-171.61,31.87,16.536,49.17432067,-121.6804923,0.88
1.756,-0.321,-0.7012,1.0812,-1.2083,-1.1669,3.0639,-1.8035,0.4687,1.6128,853.3262,10.62,-10.56,-24,-171.61,31.87,16.536,49.17432067,-121.6804923,0.88
1.758,-0.321,-0.7012,1.0812,1.3042,-2.7593,2.8856,-1.8035,0.4687,1.6128,853.3262,10.62,-10.56,-24,-171.61,31.87,16.536,49.17432067,-121.6804923,0.88
1.812,-0.6293,-0.647,0.856,1.3042,-2.7593,2.8856,-1.8035,0.4687,1.6128,853.3262,10.62,-10.56,-24,165.788,31.34,36.324,49.17432067,-121.6804923,0.88
1.814,-0.6293,-0.647,0.856,1.3042,-2.7593,2.8856,-1.8035,0.4687,1.6128,853.3262,10.44,-8.04,-24.84,162.904,31.34,36.324,49.17432067,-121.6804923,0.88
1.816,-0.6293,-0.647,0.856,1.3042,-2.7593,2.8856,-1.4765,0.3441,0.2248,853.3262,10.44,-8.04,-24.84,162.904,31.34,36.324,49.17432067,-121.6804923,0.88
1.818,-0.6293,-0.647,0.856,-1.4798,-1.5865,1.2057,-1.4765,0.3441,0.2248,853.3262,10.44,-8.04,-24.84,162.904,31.34,36.324,49.17432067,-121.6804923,0.88
1.848,-0.6293,-0.647,0.856,-1.4798,-1.5865,1.2057,-1.4765,0.3441,0.2248,853.2117,10.44,-8.04,-24.84,162.904,31.34,36.324,49.17432067,-121.6804923,0.88
1.85,-0.6293,-0.647,0.856,-1.4798,-1.5865,1.2057,-1.4765,0.3441,0.2248,853.2117,10.44,-8.04,-24.84,162.904,31.34,36.324,49.17432067,-121.6804923,0.88
1.875,-1.1228,-0.6714,0.2394,-1.4798,-1.5865,1.2057,-1.4765,0.3441,0.2248,853.2117,10.44,-8.04,-24.84,123.626,30.32,77.966,49.17432067,-121.6804923,0.88
1.877,-1.1228,-0.6714,0.2394,-1.4798,-1.5865,1.2057,-1.4765,0.3441,0.2248,853.2117,10.08,-5.16,-25.98,117.563,30.32,77.966,49.17432067,-121.6804923,0.88
1.879,-1.1228,-0.6714,0.2394,-1.4798,-1.5865,1.2057,-0.6242,1.0163,0.7372,853.2117,10.08,-5.16,-25.98,117.563,30.32,77.966,49.17432067,-121.6804923,0.88
1.88,-1.1228,-0.6714,0.2394,-5.3232,-1.6938,-3.9811,-0.6242,1.0163,0.7372,853.2117,10.08,-5.16,-25.98,117.563,30.32,77.966,49.17432067,-121.6804923,0.88
1.932,-0.7754,-0.5331,0.4661,-5.3232,-1.6938,-3.9811,-0.6242,1.0163,0.7372,853.2117,10.08,-5.16,-25.98,132.465,30.51,58.992,49.17432067,-121.6804923,0.88
1.934,-0.7754,-0.5331,0.4661,-5.3232,-1.6938,-3.9811,-0.6242,1.0163,0.7372,853.2117,9.72,-2.22,-27.06,126.014,30.51,58.992,49.17432067,-121.6804923,0.88
1.936,-0.7754,-0.5331,0.4661,-5.3232,-1.6938,-3.9811,0.4005,-0.0426,0.9705,853.2117,9.72,-2.22,-27.06,126.014,30.51,58.992,49.17432067,-121.6804923,0.88
1.938,-0.7754,-0.5331,0.4661,-1.5564,-0.7684,-1.7409,0.4005,-0.0426,0.9705,853.2117,9.72,-2.22,-27.06,126.014,30.51,58.992,49.17432067,-121.6804923,0.88
1.993,-0.7173,-0.5454,0.2946,-1.5564,-0.7684,-1.7409,0.4005,-0.0426,0.9705,853.2117,9.72,-2.22,-27.06,121.158,35.119,67.673,49.17432067,-121.6804923,0.88
1.994,-0.7173,-0.5454,0.2946,-1.5564,-0.7684,-1.7409,0.4005,-0.0426,0.9705,853.2117,9.42,0.78,-28.08,115.142,35.119,67.673,49.17432067,-121.6804923,0.88
1.996,-0.7173,-0.5454,0.2946,-1.5564,-0.7684,-1.7409,-0.571,-0.9641,0.9332,853.2117,9.42,0.78,-28.08,115.142,35.119,67.673,49.17432067,-121.6804923,0.88
1.998,-0.7173,-0.5454,0.2946,-0.9812,-0.8843,-3.4137,-0.571,-0.9641,0.9332,853.2117,9.42,0.78,-28.08,115.142,35.119,67.673,49.17432067,-121.6804923,0.88
2.027,-0.7173,-0.5454,0.2946,-0.9812,-0.8843,-3.4137,-0.571,-0.9641,0.9332,853.1946,9.42,0.78,-28.08,115.142,35.119,67.673,49.17432067,-121.6804923,0.88
2.029,-0.7173,-0.5454,0.2946,-0.9812,-0.8843,-3.4137,-0.571,-0.9641,0.9332,853.1946,9.42,0.78,-28.08,115.142,35.119,67.673,49.17432067,-121.6804923,0.88
2.051,-0.0987,-0.2986,0.6039,-0.9812,-0.8843,-3.4137,-0.571,-0.9641,0.9332,853.1946,9.42,0.78,-28.08,-158.528,26.013,9.283,49.17432067,-121.6804923,0.88
2.052,-0.0987,-0.2986,0.6039,-0.9812,-0.8843,-3.4137,-0.571,-0.9641,0.9332,853.1946,9.18,3.78,-28.98,-155.884,26.013,9.283,49.17432067,-121.6804923,0.88
2.054,-0.0987,-0.2986,0.6039,-0.9812,-0.8843,-3.4137,-1.029,-1.2059,0.506,853.1946,9.18,3.78,-28.98,-155.884,26.013,9.283,49.17432067,-121.6804923,0.88
2.055,-0.0987,-0.2986,0.6039,4.5765,1.7647,-0.6723,-1.029,-1.2059,0.506,853.1946,9.18,3.78,-28.98,-155.884,26.013,9.283,49.17432067,-121.6804923,0.88
2.111,-0.449,-0.5165,0.2579,4.5765,1.7647,-0.6723,-1.029,-1.2059,0.506,853.1946,9.18,3.78,-28.98,122.585,44.927,60.127,49.17432067,-121.6804923,0.88
2.112,-0.449,-0.5165,0.2579,4.5765,1.7647,-0.6723,-1.029,-1.2059,0.506,853.1946,9,6.78,-29.94,117.628,44.927,60.127,49.17432067,-121.6804923,0.88
2.114,-0.449,-0.5165,0.2579,4.5765,1.7647,-0.6723,-0.2866,-1.2496,-0.1193,853.1946,9,6.78,-29.94,117.628,44.927,60.127,49.17432067,-121.6804923,0.88
2.116,-0.449,-0.5165,0.2579,0.6748,-0.0793,-4.224,-0.2866,-1.2496,-0.1193,853.1946,9,6.78,-29.94,117.628,44.927,60.127,49.17432067,-121.6804923,0.88
2.172,-0.4959,-0.3787,0.7583,0.6748,-0.0793,-4.224,-0.2866,-1.2496,-0.1193,853.1946,9,6.78,-29.94,120.937,22.685,33.187,49.17432067,-121.6804923,0.88
2.174,-0.4959,-0.3787,0.7583,0.6748,-0.0793,-4.224,-0.2866,-1.2496,-0.1193,853.1946,8.82,9.84,-30.84,106.074,22.685,33.187,49.17432067,-121.6804923,0.88
2.175,-0.4959,-0.3787,0.7583,0.6748,-0.0793,-4.224,-0.4783,-0.9278,-0.229,853.1946,8.82,9.84,-30.84,106.074,22.685,33.187,49.17432067,-121.6804923,0.88
2.177,-0.4959,-0.3787,0.7583,-0.2118,1.4408,0.5017,-0.4783,-0.9278,-0.229,853.1946,8.82,9.84,-30.84,106.074,22.685,33.187,49.17432067,-121.6804923,0.88
2.208,-0.4959,-0.3787,0.7583,-0.2118,1.4408,0.5017,-0.4783,-0.9278,-0.229,853.1973,8.82,9.84,-30.84,106.074,22.685,33.187,49.17432067,-121.6804923,0.88
2.209,-0.4959,-0.3787,0.7583,-0.2118,1.4408,0.5017,-0.4783,-0.9278,-0.229,853.1973,8.82,9.84,-30.84,106.074,22.685,33.187,49.17432067,-121.6804923,0.88
2.231,-0.192,-0.8893,0.6933,-0.2118,1.4408,0.5017,-0.4783,-0.9278,-0.229,853.1973,8.82,9.84,-30.84,-179.182,51.031,15.482,49.17432067,-121.6804923,0.88
2.233,-0.192,-0.8893,0.6933,-0.2118,1.4408,0.5017,-0.4783,-0.9278,-0.229,853.1973,8.28,12.66,-31.68,178.439,51.031,15.482,49.17432067,-121.6804923,0.88
2.235,-0.192,-0.8893,0.6933,-0.2118,1.4408,0.5017,-0.7702,-1.2858,-0.9566,853.1973,8.28,12.66,-31.68,178.439,51.031,15.482,49.17432067,-121.6804923,0.88
2.238,-0.192,-0.8893,0.6933,1.7489,-2.8158,-0.1472,-0.7702,-1.2858,-0.9566,853.1973,8.28,12.66,-31.68,178.439,51.031,15.482,49.17432067,-121.6804923,0.88
2.297,-0.3684,-0.8625,0.5408,1.7489,-2.8158,-0.1472,-0.7702,-1.2858,-0.9566,853.1973,8.28,12.66,-31.68,146.989,52.811,34.263,49.17432067,-121.6804923,0.88
2.298,-0.3684,-0.8625,0.5408,1.7489,-2.8158,-0.1472,-0.7702,-1.2858,-0.9566,853.1973,7.86,15.18,-32.1,143.219,52.811,34.263,49.17432067,-121.6804923,0.88
2.3,-0.3684,-0.8625,0.5408,1.7489,-2.8158,-0.1472,0.4197,-0.3633,-0.5145,853.1973,7.86,15.18,-32.1,143.219,52.811,34.263,49.17432067,-121.6804923,0.88
2.303,-0.3684,-0.8625,0.5408,-0.3055,-2.4449,-1.7113,0.4197,-0.3633,-0.5145,853.1973,7.86,15.18,-32.1,143.219,52.811,34.263,49.17432067,-121.6804923,0.88
2.355,-0.538,-0.9753,0.2936,-0.3055,-2.4449,-1.7113,0.4197,-0.3633,-0.5145,853.1973,7.86,15.18,-32.1,113.838,57.856,61.376,49.17432067,-121.6804923,0.88
2.357,-0.538,-0.9753,0.2936,-0.3055,-2.4449,-1.7113,0.4197,-0.3633,-0.5145,853.1973,7.44,17.28,-32.34,110.849,57.856,61.376,49.17432067,-121.6804923,0.88
2.359,-0.538,-0.9753,0.2936,-0.3055,-2.4449,-1.7113,0.1033,0.082,-0.5305,853.1973,7.44,17.28,-32.34,110.849,57.856,61.376,49.17432067,-121.6804923,0.88
2.362,-0.538,-0.9753,0.2936,-1.9772,-3.2363,-3.8568,0.1033,0.082,-0.5305,853.1973,7.44,17.28,-32.34,110.849,57.856,61.376,49.17432067,-121.6804923,0.88
2.389,-0.538,-0.9753,0.2936,-1.9772,-3.2363,-3.8568,0.1033,0.082,-0.5305,853.1174,7.44,17.28,-32.34,110.849,57.856,61.376,49.17432067,-121.6804923,0.88
2.391,-0.538,-0.9753,0.2936,-1.9772,-3.2363,-3.8568,0.1033,0.082,-0.5305,853.1174,7.44,17.28,-32.34,110.849,57.856,61.376,49.17432067,-121.6804923,0.88
2.411,-0.1813,-0.5927,0.6571,-1.9772,-3.2363,-3.8568,0.1033,0.082,-0.5305,853.1174,7.44,17.28,-32.34,170.694,41.009,15.422,49.17432067,-121.6804923,0.88
2.414,-0.1813,-0.5927,0.6571,-1.9772,-3.2363,-3.8568,0.1033,0.082,-0.5305,853.1174,7.14,19.14,-32.46,166.588,41.009,15.422,49.17432067,-121.6804923,0.88
2.416,-0.1813,-0.5927,0.6571,-1.9772,-3.2363,-3.8568,-0.2333,0.1939,-0.5571,853.1174,7.14,19.14,-32.46,166.588,41.009,15.422,49.17432067,-121.6804923,0.88
2.419,-0.1813,-0.5927,0.6571,1.2992,0.7156,-0.204,-0.2333,0.1939,-0.5571,853.1174,7.14,19.14,-32.46,166.588,41.009,15.422,49.17432067,-121.6804923,0.88
2.478,-0.2492,-0.5805,0.9107,1.2992,0.7156,-0.204,-0.2333,0.1939,-0.5571,853.1174,7.14,19.14,-32.46,122.758,31.585,15.303,49.17432067,-121.6804923,0.88
2.482,-0.2492,-0.5805,0.9107,1.2992,0.7156,-0.204,-0.2333,0.1939,-0.5571,853.1174,6.84,20.88,-32.46,77.33,31.585,15.303,49.17432067,-121.6804923,0.88
2.485,-0.2492,-0.5805,0.9107,1.2992,0.7156,-0.204,0.0852,0.2471,-0.2716,853.1174,6.84,20.88,-32.46,77.33,31.585,15.303,49.17432067,-121.6804923,0.88
2.49,-0.2492,-0.5805,0.9107,0.556,0.7547,2.168,0.0852,0.2471,-0.2716,853.1174,6.84,20.88,-32.46,77.33,31.585,15.303,49.17432067,-121.6804923,0.88
2.541,-0.1593,-0.7012,0.5687,0.556,0.7547,2.168,0.0852,0.2471,-0.2716,853.1174,6.84,20.88,-32.46,169.645,49.896,15.647,49.17432067,-121.6804923,0.88
2.548,-0.1593,-0.7012,0.5687,0.556,0.7547,2.168,0.0852,0.2471,-0.2716,853.1174,6.54,22.38,-32.34,167.29,49.896,15.647,49.17432067,-121.6804923,0.88
2.554,-0.1593,-0.7012,0.5687,0.556,0.7547,2.168,0.4282,0.179,-0.3792,853.1174,6.54,22.38,-32.34,167.29,49.896,15.647,49.17432067,-121.6804923,0.88
2.558,-0.1593,-0.7012,0.5687,1.2814,-0.4487,-1.2703,0.4282,0.179,-0.3792,853.1174,6.54,22.38,-32.34,167.29,49.896,15.647,49.17432067,-121.6804923,0.88
2.588,-0.1593,-0.7012,0.5687,1.2814,-0.4487,-1.2703,0.4282,0.179,-0.3792,853.2012,6.54,22.38,-32.34,167.29,49.896,15.647,49.17432067,-121.6804923,0.88
2.592,-0.1593,-0.7012,0.5687,1.2814,-0.4487,-1.2703,0.4282,0.179,-0.3792,853.2012,6.54,22.38,-32.34,167.29,49.896,15.647,49.17432067,-121.6804923,0.88
2.594,-0.0107,-0.5537,0.8164,1.2814,-0.4487,-1.2703,0.4282,0.179,-0.3792,853.2012,6.54,22.38,-32.34,-86.95,34.141,0.754,49.17432067,-121.6804923,0.88
2.596,-0.0107,-0.5537,0.8164,1.2814,-0.4487,-1.2703,0.4282,0.179,-0.3792,853.2012,6.18,23.76,-32.28,-75.35,34.141,0.754,49.17432067,-121.6804923,0.88
2.598,-0.0107,-0.5537,0.8164,1.2814,-0.4487,-1.2703,0.5763,0.2951,-0.294,853.2012,6.18,23.76,-32.28,-75.35,34.141,0.754,49.17432067,-121.6804923,0.88
2.6,-0.0107,-0.5537,0.8164,2.5562,0.7794,0.8887,0.5763,0.2951,-0.294,853.2012,6.18,23.76,-32.28,-75.35,34.141,0.754,49.17432067,-121.6804923,0.88
2.65,0.1329,-0.6387,0.8457,2.5562,0.7794,0.8887,0.5763,0.2951,-0.294,853.2012,6.18,23.76,-32.28,-87.168,36.724,-8.931,49.17432067,-121.6804923,0.88
2.653,0.1329,-0.6387,0.8457,2.5562,0.7794,0.8887,0.5763,0.2951,-0.294,853.2012,5.76,24.96,-32.22,-81.971,36.724,-8.931,49.17432067,-121.6804923,0.88
2.657,0.1329,-0.6387,0.8457,2.5562,0.7794,0.8887,1.3561,-1.4839,-0.3057,853.2012,5.76,24.96,-32.22,-81.971,36.724,-8.931,49.17432067,-121.6804923,0.88
2.661,0.1329,-0.6387,0.8457,2.9545,-0.5787,0.4667,1.3561,-1.4839,-0.3057,853.2012,5.76,24.96,-32.22,-81.971,36.724,-8.931,49.17432067,-121.6804923,0.88
2.72,-0.4085,-0.5092,1.241,2.9545,-0.5787,0.4667,1.3561,-1.4839,-0.3057,853.2012,5.76,24.96,-32.22,21.831,21.293,18.219,49.17432067,-121.6804923,0.88
2.726,-0.4085,-0.5092,1.241,2.9545,-0.5787,0.4667,1.3561,-1.4839,-0.3057,853.2012,11.58,21.18,-39.36,15.096,21.293,18.219,49.17432067,-121.6804923,0.88
2.731,-0.4085,-0.5092,1.241,2.9545,-0.5787,0.4667,0.3579,-2.318,-0.3814,853.2012,11.58,21.18,-39.36,15.096,21.293,18.219,49.17432067,-121.6804923,0.88
2.733,-0.4085,-0.5092,1.241,-3.5034,0.4992,4.051,0.3579,-2.318,-0.3814,853.2012,11.58,21.18,-39.36,15.096,21.293,18.219,49.17432067,-121.6804923,0.88
2.744,-0.4085,-0.5092,1.241,-3.5034,0.4992,4.051,0.3579,-2.318,-0.3814,853.2922,11.58,21.18,-39.36,15.096,21.293,18.219,49.17432067,-121.6804923,0.88
2.747,-0.4085,-0.5092,1.241,-3.5034,0.4992,4.051,0.3579,-2.318,-0.3814,853.2922,11.58,21.18,-39.36,15.096,21.293,18.219,49.17432067,-121.6804923,0.88
2.773,0.0787,-0.3929,1.2508,-3.5034,0.4992,4.051,0.3579,-2.318,-0.3814,853.2922,11.58,21.18,-39.36,-58.263,17.407,-3.599,49.17432067,-121.6804923,0.88
2.775,0.0787,-0.3929,1.2508,-3.5034,0.4992,4.051,0.3579,-2.318,-0.3814,853.2922,10.74,21.9,-39.42,-54.734,17.407,-3.599,49.17432067,-121.6804923,0.88
2.776,0.0787,-0.3929,1.2508,-3.5034,0.4992,4.051,1.6895,-0.538,-1.0322,853.2922,10.74,21.9,-39.42,-54.734,17.407,-3.599,49.17432067,-121.6804923,0.88
2.778,0.0787,-0.3929,1.2508,0.6358,0.6484,3.545,1.6895,-0.538,-1.0322,853.2922,10.74,21.9,-39.42,-54.734,17.407,-3.599,49.17432067,-121.6804923,0.88
2.832,-0.0293,-0.4383,0.9972,0.6358,0.6484,3.545,1.6895,-0.538,-1.0322,853.2922,10.74,21.9,-39.42,-66.964,23.72,1.684,49.17432067,-121.6804923,0.88
2.835,-0.0293,-0.4383,0.9972,0.6358,0.6484,3.545,1.6895,-0.538,-1.0322,853.2922,12.3,20.34,-42.54,-82.923,23.72,1.684,49.17432067,-121.6804923,0.88
2.839,-0.0293,-0.4383,0.9972,0.6358,0.6484,3.545,2.0794,-1.5052,-0.7542,853.2922,12.3,20.34,-42.54,-82.923,23.72,1.684,49.17432067,-121.6804923,0.88
2.842,-0.0293,-0.4383,0.9972,-1.3825,-0.9416,0.6227,2.0794,-1.5052,-0.7542,853.2922,12.3,20.34,-42.54,-82.923,23.72,1.684,49.17432067,-121.6804923,0.88
2.891,0.2805,-0.0939,1.4374,-1.3825,-0.9416,0.6227,2.0794,-1.5052,-0.7542,853.2922,12.3,20.34,-42.54,-48.675,3.668,-11.04,49.17432067,-121.6804923,0.88
2.893,0.2805,-0.0939,1.4374,-1.3825,-0.9416,0.6227,2.0794,-1.5052,-0.7542,853.2922,10.68,20.04,-42.84,-46.976,3.668,-11.04,49.17432067,-121.6804923,0.88
2.895,0.2805,-0.0939,1.4374,-1.3825,-0.9416,0.6227,0.5305,-1.7172,-1.0493,853.2922,10.68,20.04,-42.84,-46.976,3.668,-11.04,49.17432067,-121.6804923,0.88
2.897,0.2805,-0.0939,1.4374,0.5909,1.8726,4.9372,0.5305,-1.7172,-1.0493,853.2922,10.68,20.04,-42.84,-46.976,3.668,-11.04,49.17432067,-121.6804923,0.88
2.926,0.2805,-0.0939,1.4374,0.5909,1.8726,4.9372,0.5305,-1.7172,-1.0493,853.2971,10.68,20.04,-42.84,-46.976,3.668,-11.04,49.17432067,-121.6804923,0.88
2.93,0.2805,-0.0939,1.4374,0.5909,1.8726,4.9372,0.5305,-1.7172,-1.0493,853.2971,10.68,20.04,-42.84,-46.976,3.668,-11.04,49.17432067,-121.6804923,0.88
2.953,-0.8258,-0.3225,1.2151,0.5909,1.8726,4.9372,0.5305,-1.7172,-1.0493,853.2971,10.68,20.04,-42.84,54.966,12.383,34.199,49.17432067,-121.6804923,0.88
2.955,-0.8258,-0.3225,1.2151,0.5909,1.8726,4.9372,0.5305,-1.7172,-1.0493,853.2971,8.7,19.38,-43.2,59.117,12.383,34.199,49.17432067,-121.6804923,0.88
2.958,-0.8258,-0.3225,1.2151,0.5909,1.8726,4.9372,3.0626,-0.2461,-1.6682,853.2971,8.7,19.38,-43.2,59.117,12.383,34.199,49.17432067,-121.6804923,0.88
2.961,-0.8258,-0.3225,1.2151,-10.3971,-2.2783,2.4171,3.0626,-0.2461,-1.6682,853.2971,8.7,19.38,-43.2,59.117,12.383,34.199,49.17432067,-121.6804923,0.88
3.013,0.3274,0.2281,0.8457,-10.3971,-2.2783,2.4171,3.0626,-0.2461,-1.6682,853.2971,8.7,19.38,-43.2,-40.401,-14.12,-21.161,49.17432067,-121.6804923,0.88
3.016,0.3274,0.2281,0.8457,-10.3971,-2.2783,2.4171,3.0626,-0.2461,-1.6682,853.2971,6.36,18.12,-43.68,-38.84,-14.12,-21.161,49.17432067,-121.6804923,0.88
3.018,0.3274,0.2281,0.8457,-10.3971,-2.2783,2.4171,1.9974,0.2162,0.0916,853.2971,6.36,18.12,-43.68,-38.84,-14.12,-21.161,49.17432067,-121.6804923,0.88
3.021,0.3274,0.2281,0.8457,1.0191,1.9672,-1.2673,1.9974,0.2162,0.0916,853.2971,6.36,18.12,-43.68,-38.84,-14.12,-21.161,49.17432067,-121.6804923,0.88
3.072,-0.0635,-0.0279,0.5521,1.0191,1.9672,-1.2673,1.9974,0.2162,0.0916,853.2971,6.36,18.12,-43.68,-4.77,2.875,6.563,49.17432067,-121.6804923,0.88
3.074,-0.0635,-0.0279,0.5521,1.0191,1.9672,-1.2673,1.9974,0.2162,0.0916,853.2971,4.26,16.2,-43.86,3.201,2.875,6.563,49.17432067,-121.6804923,0.88
3.077,-0.0635,-0.0279,0.5521,1.0191,1.9672,-1.2673,3.0562,-0.3771,-0.0309,853.2971,4.26,16.2,-43.86,3.201,2.875,6.563,49.17432067,-121.6804923,0.88
3.08,-0.0635,-0.0279,0.5521,-3.0821,-2.2897,-3.8663,3.0562,-0.3771,-0.0309,853.2971,4.26,16.2,-43.86,3.201,2.875,6.563,49.17432067,-121.6804923,0.88
3.106,-0.0635,-0.0279,0.5521,-3.0821,-2.2897,-3.8663,3.0562,-0.3771,-0.0309,853.3406,4.26,16.2,-43.86,3.201,2.875,6.563,49.17432067,-121.6804923,0.88
3.11,-0.0635,-0.0279,0.5521,-3.0821,-2.2897,-3.8663,3.0562,-0.3771,-0.0309,853.3406,4.26,16.2,-43.86,3.201,2.875,6.563,49.17432067,-121.6804923,0.88
3.134,0.4529,0.1519,0.6171,-3.0821,-2.2897,-3.8663,3.0562,-0.3771,-0.0309,853.3406,4.26,16.2,-43.86,-52.831,-11.224,-36.28,49.17432067,-121.6804923,0.88
3.137,0.4529,0.1519,0.6171,-3.0821,-2.2897,-3.8663,3.0562,-0.3771,-0.0309,853.3406,2.04,13.8,-43.92,-53.843,-11.224,-36.28,49.17432067,-121.6804923,0.88
3.14,0.4529,0.1519,0.6171,-3.0821,-2.2897,-3.8663,0.4911,-1.2293,0.3111,853.3406,2.04,13.8,-43.92,-53.843,-11.224,-36.28,49.17432067,-121.6804923,0.88
3.144,0.4529,0.1519,0.6171,1.1499,-0.7089,-2.9264,0.4911,-1.2293,0.3111,853.3406,2.04,13.8,-43.92,-53.843,-11.224,-36.28,49.17432067,-121.6804923,0.88
3.191,-0.0557,0.2096,0.3439,1.1499,-0.7089,-2.9264,0.4911,-1.2293,0.3111,853.3406,2.04,13.8,-43.92,8.297,-31.026,9.2,49.17432067,-121.6804923,0.88
3.194,-0.0557,0.2096,0.3439,1.1499,-0.7089,-2.9264,0.4911,-1.2293,0.3111,853.3406,-0.06,11.22,-43.8,12.484,-31.026,9.2,49.17432067,-121.6804923,0.88
3.196,-0.0557,0.2096,0.3439,1.1499,-0.7089,-2.9264,0.3143,-0.4581,0.5699,853.3406,-0.06,11.22,-43.8,12.484,-31.026,9.2,49.17432067,-121.6804923,0.88
3.199,-0.0557,0.2096,0.3439,-4.0115,-0.3728,-5.4767,0.3143,-0.4581,0.5699,853.3406,-0.06,11.22,-43.8,12.484,-31.026,9.2,49.17432067,-121.6804923,0.88
3.26,2.0013,0.771,2.0013,-4.0115,-0.3728,-5.4767,0.3143,-0.4581,0.5699,853.3406,-0.06,11.22,-43.8,-58.468,-15.238,-45,49.17432067,-121.6804923,0.88
3.263,2.0013,0.771,2.0013,-4.0115,-0.3728,-5.4767,0.3143,-0.4581,0.5699,853.3406,-2.16,8.46,-43.68,-60.395,-15.238,-45,49.17432067,-121.6804923,0.88
3.268,2.0013,0.771,2.0013,-4.0115,-0.3728,-5.4767,-1.5329,-1.4051,1.2719,853.3406,-2.16,8.46,-43.68,-60.395,-15.238,-45,49.17432067,-121.6804923,0.88
3.273,2.0013,0.771,2.0013,15.0001,6.3036,11.0496,-1.5329,-1.4051,1.2719,853.3406,-2.16,8.46,-43.68,-60.395,-15.238,-45,49.17432067,-121.6804923,0.88
3.283,2.0013,0.771,2.0013,15.0001,6.3036,11.0496,-1.5329,-1.4051,1.2719,853.3096,-2.16,8.46,-43.68,-60.395,-15.238,-45,49.17432067,-121.6804923,0.88
3.285,2.0013,0.771,2.0013,15.0001,6.3036,11.0496,-1.5329,-1.4051,1.2719,853.3096,-2.16,8.46,-43.68,-60.395,-15.238,-45,49.17432067,-121.6804923,0.88
3.309,0.5468,0.2242,1.027,15.0001,6.3036,11.0496,-1.5329,-1.4051,1.2719,853.3096,-2.16,8.46,-43.68,-49.693,-10.908,-28.03,49.17432067,-121.6804923,0.88
3.312,0.5468,0.2242,1.027,15.0001,6.3036,11.0496,-1.5329,-1.4051,1.2719,853.3096,-4.08,5.64,-43.44,-51.955,-10.908,-28.03,49.17432067,-121.6804923,0.88
3.314,0.5468,0.2242,1.027,15.0001,6.3036,11.0496,0.9918,-0.6892,-0.1427,853.3096,-4.08,5.64,-43.44,-51.955,-10.908,-28.03,49.17432067,-121.6804923,0.88
3.317,0.5468,0.2242,1.027,0.6233,0.1863,1.7156,0.9918,-0.6892,-0.1427,853.3096,-4.08,5.64,-43.44,-51.955,-10.908,-28.03,49.17432067,-121.6804923,0.88
3.391,-0.0474,0.171,1.0744,0.6233,0.1863,1.7156,0.9918,-0.6892,-0.1427,853.3096,-4.08,5.64,-43.44,25.867,-9.032,2.526,49.17432067,-121.6804923,0.88
3.393,-0.0474,0.171,1.0744,0.6233,0.1863,1.7156,0.9918,-0.6892,-0.1427,853.3096,-6.12,2.7,-43.2,40.464,-9.032,2.526,49.17432067,-121.6804923,0.88
3.395,-0.0474,0.171,1.0744,0.6233,0.1863,1.7156,0.3803,2.8581,-0.9278,853.3096,-6.12,2.7,-43.2,40.464,-9.032,2.526,49.17432067,-121.6804923,0.88
3.397,-0.0474,0.171,1.0744,-3.4881,-0.6795,1.5023,0.3803,2.8581,-0.9278,853.3096,-6.12,2.7,-43.2,40.464,-9.032,2.526,49.17432067,-121.6804923,0.88
3.429,-0.5297,0.082,0.8785,-3.4881,-0.6795,1.5023,0.3803,2.8581,-0.9278,853.3096,-6.12,2.7,-43.2,78.932,-4.572,31.087,49.17432067,-121.6804923,0.88
3.431,-0.5297,0.082,0.8785,-3.4881,-0.6795,1.5023,0.3803,2.8581,-0.9278,853.3096,-8.1,-0.36,-42.84,85.607,-4.572,31.087,49.17432067,-121.6804923,0.88
3.433,-0.5297,0.082,0.8785,-3.4881,-0.6795,1.5023,0.2184,-0.5752,-1.4573,853.3096,-8.1,-0.36,-42.84,85.607,-4.572,31.087,49.17432067,-121.6804923,0.88
3.435,-0.5297,0.082,0.8785,-9.3295,-2.3065,0.2803,0.2184,-0.5752,-1.4573,853.3096,-8.1,-0.36,-42.84,85.607,-4.572,31.087,49.17432067,-121.6804923,0.88
3.467,-0.5297,0.082,0.8785,-9.3295,-2.3065,0.2803,0.2184,-0.5752,-1.4573,853.1335,-8.1,-0.36,-42.84,85.607,-4.572,31.087,49.17432067,-121.6804923,0.88
3.47,-0.5297,0.082,0.8785,-9.3295,-2.3065,0.2803,0.2184,-0.5752,-1.4573,853.1335,-8.1,-0.36,-42.84,85.607,-4.572,31.087,49.17432067,-121.6804923,0.88
3.494,0.2057,0.2237,0.662,-9.3295,-2.3065,0.2803,0.2184,-0.5752,-1.4573,853.1335,-8.1,-0.36,-42.84,-21.007,-17.886,-17.262,49.17432067,-121.6804923,0.88
3.498,0.2057,0.2237,0.662,-9.3295,-2.3065,0.2803,0.2184,-0.5752,-1.4573,853.1335,-9.96,-3.48,-42.48,-17.103,-17.886,-17.262,49.17432067,-121.6804923,0.88
3.501,0.2057,0.2237,0.662,-9.3295,-2.3065,0.2803,0.3558,-1.4605,-0.6093,853.1335,-9.96,-3.48,-42.48,-17.103,-17.886,-17.262,49.17432067,-121.6804923,0.88
3.504,0.2057,0.2237,0.662,-3.0077,-1.7359,-0.9623,0.3558,-1.4605,-0.6093,853.1335,-9.96,-3.48,-42.48,-17.103,-17.886,-17.262,49.17432067,-121.6804923,0.88
3.552,0.1891,0.3009,0.5467,-3.0077,-1.7359,-0.9623,0.3558,-1.4605,-0.6093,853.1335,-9.96,-3.48,-42.48,-14.79,-27.484,-19.08,49.17432067,-121.6804923,0.88
3.553,0.1891,0.3009,0.5467,-3.0077,-1.7359,-0.9623,0.3558,-1.4605,-0.6093,853.1335,-11.76,-6.66,-42,-10.446,-27.484,-19.08,49.17432067,-121.6804923,0.88
3.557,0.1891,0.3009,0.5467,-3.0077,-1.7359,-0.9623,-0.1395,-0.5081,-0.8714,853.1335,-11.76,-6.66,-42,-10.446,-27.484,-19.08,49.17432067,-121.6804923,0.88
3.559,0.1891,0.3009,0.5467,-3.4579,-1.2425,-1.7412,-0.1395,-0.5081,-0.8714,853.1335,-11.76,-6.66,-42,-10.446,-27.484,-19.08,49.17432067,-121.6804923,0.88
3.609,0.3044,0.2169,0.642,-3.4579,-1.2425,-1.7412,-0.1395,-0.5081,-0.8714,853.1335,-11.76,-6.66,-42,-50.01,-16.975,-25.369,49.174309,-121.6805172,1.27999997
3.61,0.3044,0.2169,0.642,-3.4579,-1.2425,-1.7412,-0.1395,-0.5081,-0.8714,853.1335,-13.56,-9.9,-41.46,-60.132,-16.975,-25.369,49.174309,-121.6805172,1.27999997
3.617,0.3044,0.2169,0.642,-3.4579,-1.2425,-1.7412,0.1321,-0.9598,-0.4027,853.1335,-13.56,-9.9,-41.46,-60.132,-16.975,-25.369,49.174309,-121.6805172,1.27999997
3.618,0.3044,0.2169,0.642,-2.8781,-2.5502,-0.0295,0.1321,-0.9598,-0.4027,853.1335,-13.56,-9.9,-41.46,-60.132,-16.975,-25.369,49.174309,-121.6805172,1.27999997
3.642,0.3044,0.2169,0.642,-2.8781,-2.5502,-0.0295,0.1321,-0.9598,-0.4027,853.3164,-13.56,-9.9,-41.46,-60.132,-16.975,-25.369,49.174309,-121.6805172,1.27999997
3.643,0.3044,0.2169,0.642,-2.8781,-2.5502,-0.0295,0.1321,-0.9598,-0.4027,853.3164,-13.56,-9.9,-41.46,-60.132,-16.975,-25.369,49.174309,-121.6805172,1.27999997
3.667,0.4334,0.3214,0.7133,-2.8781,-2.5502,-0.0295,0.1321,-0.9598,-0.4027,853.3164,-13.56,-9.9,-41.46,-58.773,-21.063,-31.282,49.174309,-121.6805172,1.27999997
3.67,0.4334,0.3214,0.7133,-2.8781,-2.5502,-0.0295,0.1321,-0.9598,-0.4027,853.3164,-15.24,-13.2,-40.86,-69.421,-21.063,-31.282,49.174309,-121.6805172,1.27999997
3.672,0.4334,0.3214,0.7133,-2.8781,-2.5502,-0.0295,-0.0469,-1.0738,-0.2972,853.3164,-15.24,-13.2,-40.86,-69.421,-21.063,-31.282,49.174309,-121.6805172,1.27999997
3.673,0.4334,0.3214,0.7133,-2.1308,-1.7297,1.3623,-0.0469,-1.0738,-0.2972,853.3164,-15.24,-13.2,-40.86,-69.421,-21.063,-31.282,49.174309,-121.6805172,1.27999997
3.73,0.5428,0.4343,0.6073,-2.1308,-1.7297,1.3623,-0.0469,-1.0738,-0.2972,853.3164,-15.24,-13.2,-40.86,-64.81,-28.067,-41.793,49.174309,-121.6805172,1.27999997
3.732,0.5428,0.4343,0.6073,-2.1308,-1.7297,1.3623,-0.0469,-1.0738,-0.2972,853.3164,-16.68,-16.38,-40.2,-71.232,-28.067,-41.793,49.174309,-121.6805172,1.27999997
3.734,0.5428,0.4343,0.6073,-2.1308,-1.7297,1.3623,0.6796,-1.1782,-0.881,853.3164,-16.68,-16.38,-40.2,-71.232,-28.067,-41.793,49.174309,-121.6805172,1.27999997
3.736,0.5428,0.4343,0.6073,-1.3181,-1.4023,1.4694,0.6796,-1.1782,-0.881,853.3164,-16.68,-16.38,-40.2,-71.232,-28.067,-41.793,49.174309,-121.6805172,1.27999997
3.789,0.5243,0.2516,0.9527,-1.3181,-1.4023,1.4694,0.6796,-1.1782,-0.881,853.3164,-16.68,-16.38,-40.2,-142.477,-13.026,-28.824,49.174309,-121.6805172,1.27999997
3.791,0.5243,0.2516,0.9527,-1.3181,-1.4023,1.4694,0.6796,-1.1782,-0.881,853.3164,-17.76,-19.26,-39.3,-159.529,-13.026,-28.824,49.174309,-121.6805172,1.27999997
3.792,0.5243,0.2516,0.9527,-1.3181,-1.4023,1.4694,0.5923,-0.0458,-0.9044,853.3164,-17.76,-19.26,-39.3,-159.529,-13.026,-28.824,49.174309,-121.6805172,1.27999997
3.795,0.5243,0.2516,0.9527,-1.0653,-4.3833,6.0528,0.5923,-0.0458,-0.9044,853.3164,-17.76,-19.26,-39.3,-159.529,-13.026,-28.824,49.174309,-121.6805172,1.27999997
3.821,0.5243,0.2516,0.9527,-1.0653,-4.3833,6.0528,0.5923,-0.0458,-0.9044,853.218,-17.76,-19.26,-39.3,-159.529,-13.026,-28.824,49.174309,-121.6805172,1.27999997
3.823,0.5243,0.2516,0.9527,-1.0653,-4.3833,6.0528,0.5923,-0.0458,-0.9044,853.218,-17.76,-19.26,-39.3,-159.529,-13.026,-28.824,49.174309,-121.6805172,1.27999997
3.847,0.3411,0.5809,0.7553,-1.0653,-4.3833,6.0528,0.5923,-0.0458,-0.9044,853.218,-17.76,-19.26,-39.3,0.088,-35.028,-24.3,49.174309,-121.6805172,1.27999997
3.849,0.3411,0.5809,0.7553,-1.0653,-4.3833,6.0528,0.5923,-0.0458,-0.9044,853.218,-18.54,-21.96,-38.4,9.585,-35.028,-24.3,49.174309,-121.6805172,1.27999997
3.85,0.3411,0.5809,0.7553,-1.0653,-4.3833,6.0528,0.0714,1.3284,-0.3654,853.218,-18.54,-21.96,-38.4,9.585,-35.028,-24.3,49.174309,-121.6805172,1.27999997
3.851,0.3411,0.5809,0.7553,-2.6953,-1.4333,4.413,0.0714,1.3284,-0.3654,853.218,-18.54,-21.96,-38.4,9.585,-35.028,-24.3,49.174309,-121.6805172,1.27999997
3.907,0.4251,0.5066,0.6737,-2.6953,-1.4333,4.413,0.0714,1.3284,-0.3654,853.218,-18.54,-21.96,-38.4,-48.833,-32.455,-32.25,49.174309,-121.6805172,1.27999997
3.909,0.4251,0.5066,0.6737,-2.6953,-1.4333,4.413,0.0714,1.3284,-0.3654,853.218,-18.96,-24.42,-37.44,-65.28,-32.455,-32.25,49.174309,-121.6805172,1.27999997
3.911,0.4251,0.5066,0.6737,-2.6953,-1.4333,4.413,0.2333,-1.0749,0.0799,853.218,-18.96,-24.42,-37.44,-65.28,-32.455,-32.25,49.174309,-121.6805172,1.27999997
3.913,0.4251,0.5066,0.6737,-2.2673,-2.296,5.1664,0.2333,-1.0749,0.0799,853.218,-18.96,-24.42,-37.44,-65.28,-32.455,-32.25,49.174309,-121.6805172,1.27999997
3.974,0.3943,0.4905,0.9439,-2.2673,-2.296,5.1664,0.2333,-1.0749,0.0799,853.218,-18.96,-24.42,-37.44,142.015,-25.617,-22.672,49.174309,-121.6805172,1.27999997
3.976,0.3943,0.4905,0.9439,-2.2673,-2.296,5.1664,0.2333,-1.0749,0.0799,853.218,-19.08,-26.34,-36.48,149.502,-25.617,-22.672,49.174309,-121.6805172,1.27999997
3.984,0.3943,0.4905,0.9439,-2.2673,-2.296,5.1664,-0.0937,1.0855,-0.3611,853.218,-19.08,-26.34,-36.48,149.502,-25.617,-22.672,49.174309,-121.6805172,1.27999997
3.988,0.3943,0.4905,0.9439,-2.3981,-2.735,8.984,-0.0937,1.0855,-0.3611,853.218,-19.08,-26.34,-36.48,149.502,-25.617,-22.672,49.174309,-121.6805172,1.27999997
4.001,0.3943,0.4905,0.9439,-2.3981,-2.735,8.984,-0.0937,1.0855,-0.3611,853.1616,-19.08,-26.34,-36.48,149.502,-25.617,-22.672,49.174309,-121.6805172,1.27999997
4.003,0.3943,0.4905,0.9439,-2.3981,-2.735,8.984,-0.0937,1.0855,-0.3611,853.1616,-19.08,-26.34,-36.48,149.502,-25.617,-22.672,49.174309,-121.6805172,1.27999997
4.025,0.1339,0.4719,0.8687,-2.3981,-2.735,8.984,-0.0937,1.0855,-0.3611,853.1616,-19.08,-26.34,-36.48,109.751,-28.233,-8.761,49.174309,-121.6805172,1.27999997
4.026,0.1339,0.4719,0.8687,-2.3981,-2.735,8.984,-0.0937,1.0855,-0.3611,853.1616,-19.38,-27.78,-35.7,114.971,-28.233,-8.761,49.174309,-121.6805172,1.27999997
4.028,0.1339,0.4719,0.8687,-2.3981,-2.735,8.984,0.0362,1.5287,0.1886,853.1616,-19.38,-27.78,-35.7,114.971,-28.233,-8.761,49.174309,-121.6805172,1.27999997
4.032,0.1339,0.4719,0.8687,-5.2726,-2.5805,9.459,0.0362,1.5287,0.1886,853.1616,-19.38,-27.78,-35.7,114.971,-28.233,-8.761,49.174309,-121.6805172,1.27999997
4.085,0.0923,0.5433,0.9337,-5.2726,-2.5805,9.459,0.0362,1.5287,0.1886,853.1616,-19.38,-27.78,-35.7,108.517,-30.073,-5.649,49.174309,-121.6805172,1.27999997
4.086,0.0923,0.5433,0.9337,-5.2726,-2.5805,9.459,0.0362,1.5287,0.1886,853.1616,-19.32,-28.68,-35.04,112.059,-30.073,-5.649,49.174309,-121.6805172,1.27999997
4.086,0.0923,0.5433,0.9337,-5.2726,-2.5805,9.459,-0.4123,1.2559,0.7649,853.1616,-19.32,-28.68,-35.04,112.059,-30.073,-5.649,49.174309,-121.6805172,1.27999997
4.087,0.0923,0.5433,0.9337,-6.2751,-0.941,11.4662,-0.4123,1.2559,0.7649,853.1616,-19.32,-28.68,-35.04,112.059,-30.073,-5.649,49.174309,-121.6805172,1.27999997
4.146,-0.0186,0.4309,0.8956,-6.2751,-0.941,11.4662,-0.4123,1.2559,0.7649,853.1616,-19.32,-28.68,-35.04,118.391,-25.689,1.188,49.174309,-121.6805172,1.27999997
4.147,-0.0186,0.4309,0.8956,-6.2751,-0.941,11.4662,-0.4123,1.2559,0.7649,853.1616,-19.14,-29.46,-34.44,120.717,-25.689,1.188,49.174309,-121.6805172,1.27999997
4.149,-0.0186,0.4309,0.8956,-6.2751,-0.941,11.4662,-0.7148,0.751,0.2258,853.1616,-19.14,-29.46,-34.44,120.717,-25.689,1.188,49.174309,-121.6805172,1.27999997
4.15,-0.0186,0.4309,0.8956,-7.6532,-0.9974,12.396,-0.7148,0.751,0.2258,853.1616,-19.14,-29.46,-34.44,120.717,-25.689,1.188,49.174309,-121.6805172,1.27999997
4.181,-0.0186,0.4309,0.8956,-7.6532,-0.9974,12.396,-0.7148,0.751,0.2258,853.1985,-19.14,-29.46,-34.44,120.717,-25.689,1.188,49.174309,-121.6805172,1.27999997
4.182,-0.0186,0.4309,0.8956,-7.6532,-0.9974,12.396,-0.7148,0.751,0.2258,853.1985,-19.14,-29.46,-34.44,120.717,-25.689,1.188,49.174309,-121.6805172,1.27999997
4.205,0.1417,0.3894,0.8115,-7.6532,-0.9974,12.396,-0.7148,0.751,0.2258,853.1985,-19.14,-29.46,-34.44,129.687,-25.297,-9.904,49.174309,-121.6805172,1.27999997
4.207,0.1417,0.3894,0.8115,-7.6532,-0.9974,12.396,-0.7148,0.751,0.2258,853.1985,-18.84,-30.12,-33.9,132.287,-25.297,-9.904,49.174309,-121.6805172,1.27999997
4.208,0.1417,0.3894,0.8115,-7.6532,-0.9974,12.396,-0.3803,-1.5297,1.4509,853.1985,-18.84,-30.12,-33.9,132.287,-25.297,-9.904,49.174309,-121.6805172,1.27999997
4.21,0.1417,0.3894,0.8115,-5.6736,-0.0088,13.5803,-0.3803,-1.5297,1.4509,853.1985,-18.84,-30.12,-33.9,132.287,-25.297,-9.904,49.174309,-121.6805172,1.27999997
4.266,0.2106,0.5213,0.8237,-5.6736,-0.0088,13.5803,-0.3803,-1.5297,1.4509,853.1985,-18.84,-30.12,-33.9,121.634,-31.513,-14.341,49.174309,-121.6805172,1.27999997
4.268,0.2106,0.5213,0.8237,-5.6736,-0.0088,13.5803,-0.3803,-1.5297,1.4509,853.1985,-18.42,-30.84,-33.42,126.122,-31.513,-14.341,49.174309,-121.6805172,1.27999997
4.269,0.2106,0.5213,0.8237,-5.6736,-0.0088,13.5803,-0.3356,0.522,1.0727,853.1985,-18.42,-30.84,-33.42,126.122,-31.513,-14.341,49.174309,-121.6805172,1.27999997
4.271,0.2106,0.5213,0.8237,-4.6575,2.827,14.8394,-0.3356,0.522,1.0727,853.1985,-18.42,-30.84,-33.42,126.122,-31.513,-14.341,49.174309,-121.6805172,1.27999997
4.353,0.2663,0.3752,0.7402,-4.6575,2.827,14.8394,-0.3356,0.522,1.0727,853.1985,-18.42,-30.84,-33.42,152.604,-25.499,-19.787,49.174309,-121.6805172,1.27999997
4.361,0.2663,0.3752,0.7402,-4.6575,2.827,14.8394,-0.3356,0.522,1.0727,853.1985,-17.94,-31.5,-33,155.363,-25.499,-19.787,49.174309,-121.6805172,1.27999997
4.372,0.2663,0.3752,0.7402,-4.6575,2.827,14.8394,-0.1662,-0.0288,0.5912,853.1985,-17.94,-31.5,-33,155.363,-25.499,-19.787,49.174309,-121.6805172,1.27999997
4.378,0.2663,0.3752,0.7402,-3.1541,2.2652,15.0612,-0.1662,-0.0288,0.5912,853.1985,-17.94,-31.5,-33,155.363,-25.499,-19.787,49.174309,-121.6805172,1.27999997
4.392,0.2663,0.3752,0.7402,-3.1541,2.2652,15.0612,-0.1662,-0.0288,0.5912,853.1213,-17.94,-31.5,-33,155.363,-25.499,-19.787,49.174309,-121.6805172,1.27999997
4.398,0.2663,0.3752,0.7402,-3.1541,2.2652,15.0612,-0.1662,-0.0288,0.5912,853.1213,-17.94,-31.5,-33,155.363,-25.499,-19.787,49.174309,-121.6805172,1.27999997
4.403,0.2375,0.3967,0.7338,-3.1541,2.2652,15.0612,-0.1662,-0.0288,0.5912,853.1213,-17.94,-31.5,-33,148.162,-27.218,-17.931,49.174309,-121.6805172,1.27999997
4.409,0.2375,0.3967,0.7338,-3.1541,2.2652,15.0612,-0.1662,-0.0288,0.5912,853.1213,-17.52,-32.04,-32.64,150.753,-27.218,-17.931,49.174309,-121.6805172,1.27999997
4.412,0.2375,0.3967,0.7338,-3.1541,2.2652,15.0612,0.4762,-0.2162,0.571,853.1213,-17.52,-32.04,-32.64,150.753,-27.218,-17.931,49.174309,-121.6805172,1.27999997
4.414,0.2375,0.3967,0.7338,-2.4676,3.7107,15.7443,0.4762,-0.2162,0.571,853.1213,-17.52,-32.04,-32.64,150.753,-27.218,-17.931,49.174309,-121.6805172,1.27999997
4.446,0.3176,0.4456,0.7954,-2.4676,3.7107,15.7443,0.4762,-0.2162,0.571,853.1213,-17.52,-32.04,-32.64,159.979,-27.485,-21.767,49.174309,-121.6805172,1.27999997
4.448,0.3176,0.4456,0.7954,-2.4676,3.7107,15.7443,0.4762,-0.2162,0.571,853.1213,-17.1,-32.46,-32.4,162.119,-27.485,-21.767,49.174309,-121.6805172,1.27999997
4.45,0.3176,0.4456,0.7954,-2.4676,3.7107,15.7443,0.1129,-0.4453,0.9396,853.1213,-17.1,-32.46,-32.4,162.119,-27.485,-21.767,49.174309,-121.6805172,1.27999997
4.452,0.3176,0.4456,0.7954,-0.0934,5.4024,17.0047,0.1129,-0.4453,0.9396,853.1213,-17.1,-32.46,-32.4,162.119,-27.485,-21.767,49.174309,-121.6805172,1.27999997
4.519,0.5556,0.3713,0.9542,-0.0934,5.4024,17.0047,0.1129,-0.4453,0.9396,853.1213,-17.1,-32.46,-32.4,-175.437,-18.586,-30.209,49.174309,-121.6805172,1.27999997
4.526,0.5556,0.3713,0.9542,-0.0934,5.4024,17.0047,0.1129,-0.4453,0.9396,853.1213,-16.74,-32.7,-32.28,-174.777,-18.586,-30.209,49.174309,-121.6805172,1.27999997
4.532,0.5556,0.3713,0.9542,-0.0934,5.4024,17.0047,-0.1949,-1.0599,1.0706,853.1213,-16.74,-32.7,-32.28,-174.777,-18.586,-30.209,49.174309,-121.6805172,1.27999997
4.534,0.5556,0.3713,0.9542,4.3801,5.3637,18.946,-0.1949,-1.0599,1.0706,853.1213,-16.74,-32.7,-32.28,-174.777,-18.586,-30.209,49.174309,-121.6805172,1.27999997
4.54,0.5556,0.3713,0.9542,4.3801,5.3637,18.946,-0.1949,-1.0599,1.0706,853.2849,-16.74,-32.7,-32.28,-174.777,-18.586,-30.209,49.174309,-121.6805172,1.27999997
4.542,0.5556,0.3713,0.9542,4.3801,5.3637,18.946,-0.1949,-1.0599,1.0706,853.2849,-16.74,-32.7,-32.28,-174.777,-18.586,-30.209,49.174309,-121.6805172,1.27999997
4.574,0.6806,0.2912,1.0001,4.3801,5.3637,18.946,-0.1949,-1.0599,1.0706,853.2849,-16.74,-32.7,-32.28,-169.51,-13.532,-34.237,49.174309,-121.6805172,1.27999997
4.581,0.6806,0.2912,1.0001,4.3801,5.3637,18.946,-0.1949,-1.0599,1.0706,853.2849,-16.62,-32.82,-32.28,-169.334,-13.532,-34.237,49.174309,-121.6805172,1.27999997
4.583,0.6806,0.2912,1.0001,4.3801,5.3637,18.946,-0.9193,-0.6136,0.7446,853.2849,-16.62,-32.82,-32.28,-169.334,-13.532,-34.237,49.174309,-121.6805172,1.27999997
4.585,0.6806,0.2912,1.0001,7.4728,4.5703,19.423,-0.9193,-0.6136,0.7446,853.2849,-16.62,-32.82,-32.28,-169.334,-13.532,-34.237,49.174309,-121.6805172,1.27999997
4.629,0.5917,0.1817,0.6874,7.4728,4.5703,19.423,-0.9193,-0.6136,0.7446,853.2849,-16.62,-32.82,-32.28,-161.468,-11.328,-40.721,49.17430465,-121.6805571,1.96000004
4.631,0.5917,0.1817,0.6874,7.4728,4.5703,19.423,-0.9193,-0.6136,0.7446,853.2849,-16.62,-32.76,-32.28,-161.428,-11.328,-40.721,49.17430465,-121.6805571,1.96000004
4.632,0.5917,0.1817,0.6874,7.4728,4.5703,19.423,-1.3753,0.1108,-0.6402,853.2849,-16.62,-32.76,-32.28,-161.428,-11.328,-40.721,49.17430465,-121.6805571,1.96000004
4.634,0.5917,0.1817,0.6874,8.1792,2.9477,16.1782,-1.3753,0.1108,-0.6402,853.2849,-16.62,-32.76,-32.28,-161.428,-11.328,-40.721,49.17430465,-121.6805571,1.96000004
4.686,0.2101,-0.2048,1.3597,8.1792,2.9477,16.1782,-1.3753,0.1108,-0.6402,853.2849,-16.62,-32.76,-32.28,162.945,8.466,-8.784,49.17430465,-121.6805571,1.96000004
4.687,0.2101,-0.2048,1.3597,8.1792,2.9477,16.1782,-1.3753,0.1108,-0.6402,853.2849,-16.74,-32.52,-32.34,162.694,8.466,-8.784,49.17430465,-121.6805571,1.96000004
4.691,0.2101,-0.2048,1.3597,8.1792,2.9477,16.1782,-2.024,3.1532,-0.3441,853.2849,-16.74,-32.52,-32.34,162.694,8.466,-8.784,49.17430465,-121.6805571,1.96000004
4.693,0.2101,-0.2048,1.3597,2.565,-2.0078,23.1191,-2.024,3.1532,-0.3441,853.2849,-16.74,-32.52,-32.34,162.694,8.466,-8.784,49.17430465,-121.6805571,1.96000004
4.721,0.2101,-0.2048,1.3597,2.565,-2.0078,23.1191,-2.024,3.1532,-0.3441,853.3789,-16.74,-32.52,-32.34,162.694,8.466,-8.784,49.17430465,-121.6805571,1.96000004
4.723,0.2101,-0.2048,1.3597,2.565,-2.0078,23.1191,-2.024,3.1532,-0.3441,853.3789,-16.74,-32.52,-32.34,162.694,8.466,-8.784,49.17430465,-121.6805571,1.96000004
4.747,0.1847,-0.1784,0.9005,2.565,-2.0078,23.1191,-2.024,3.1532,-0.3441,853.3789,-16.74,-32.52,-32.34,165.615,10.984,-11.591,49.17430465,-121.6805571,1.96000004
4.75,0.1847,-0.1784,0.9005,2.565,-2.0078,23.1191,-2.024,3.1532,-0.3441,853.3789,-16.74,-31.98,-32.7,165.549,10.984,-11.591,49.17430465,-121.6805571,1.96000004
4.752,0.1847,-0.1784,0.9005,2.565,-2.0078,23.1191,-1.9633,3.9074,-0.1523,853.3789,-16.74,-31.98,-32.7,165.549,10.984,-11.591,49.17430465,-121.6805571,1.96000004
4.754,0.1847,-0.1784,0.9005,-0.1307,-2.624,18.3971,-1.9633,3.9074,-0.1523,853.3789,-16.74,-31.98,-32.7,165.549,10.984,-11.591,49.17430465,-121.6805571,1.96000004
4.811,-0.4241,-0.1721,0.5257,-0.1307,-2.624,18.3971,-1.9633,3.9074,-0.1523,853.3789,-16.74,-31.98,-32.7,135.938,14.291,38.896,49.17430465,-121.6805571,1.96000004
4.813,-0.4241,-0.1721,0.5257,-0.1307,-2.624,18.3971,-1.9633,3.9074,-0.1523,853.3789,-16.38,-31.02,-33.42,135.177,14.291,38.896,49.17430465,-121.6805571,1.96000004
4.816,-0.4241,-0.1721,0.5257,-0.1307,-2.624,18.3971,-2.5971,3.8957,0.2397,853.3789,-16.38,-31.02,-33.42,135.177,14.291,38.896,49.17430465,-121.6805571,1.96000004
4.818,-0.4241,-0.1721,0.5257,-8.4917,-3.7347,13.7061,-2.5971,3.8957,0.2397,853.3789,-16.38,-31.02,-33.42,135.177,14.291,38.896,49.17430465,-121.6805571,1.96000004
4.88,-0.3308,-0.2634,0.3899,-8.4917,-3.7347,13.7061,-2.5971,3.8957,0.2397,853.3789,-16.38,-31.02,-33.42,135.235,27.259,40.315,49.17430465,-121.6805571,1.96000004
4.884,-0.3308,-0.2634,0.3899,-8.4917,-3.7347,13.7061,-2.5971,3.8957,0.2397,853.3789,-15,-29.34,-34.44,134.953,27.259,40.315,49.17430465,-121.6805571,1.96000004
4.886,-0.3308,-0.2634,0.3899,-8.4917,-3.7347,13.7061,-4.1716,3.0158,0.8309,853.3789,-15,-29.34,-34.44,134.953,27.259,40.315,49.17430465,-121.6805571,1.96000004
4.888,-0.3308,-0.2634,0.3899,-9.0858,-6.0471,10.8921,-4.1716,3.0158,0.8309,853.3789,-15,-29.34,-34.44,134.953,27.259,40.315,49.17430465,-121.6805571,1.96000004
4.9,-0.3308,-0.2634,0.3899,-9.0858,-6.0471,10.8921,-4.1716,3.0158,0.8309,853.3467,-15,-29.34,-34.44,134.953,27.259,40.315,49.17430465,-121.6805571,1.96000004
4.902,-0.3308,-0.2634,0.3899,-9.0858,-6.0471,10.8921,-4.1716,3.0158,0.8309,853.3467,-15,-29.34,-34.44,134.953,27.259,40.315,49.17430465,-121.6805571,1.96000004
4.925,-0.4187,-0.6323,0.3356,-9.0858,-6.0471,10.8921,-4.1716,3.0158,0.8309,853.3467,-15,-29.34,-34.44,126.147,49.68,51.288,49.17430465,-121.6805571,1.96000004
4.928,-0.4187,-0.6323,0.3356,-9.0858,-6.0471,10.8921,-4.1716,3.0158,0.8309,853.3467,-13.02,-26.82,-35.4,126.524,49.68,51.288,49.17430465,-121.6805571,1.96000004
4.93,-0.4187,-0.6323,0.3356,-9.0858,-6.0471,10.8921,-3.9713,1.0195,0.7382,853.3467,-13.02,-26.82,-35.4,126.524,49.68,51.288,49.17430465,-121.6805571,1.96000004
4.932,-0.4187,-0.6323,0.3356,-10.7615,-10.7463,8.8698,-3.9713,1.0195,0.7382,853.3467,-13.02,-26.82,-35.4,126.524,49.68,51.288,49.17430465,-121.6805571,1.96000004
4.999,-0.5077,-0.6353,1.0338,-10.7615,-10.7463,8.8698,-3.9713,1.0195,0.7382,853.3467,-13.02,-26.82,-35.4,142.881,28.879,26.153,49.17430465,-121.6805571,1.96000004
5.004,-0.5077,-0.6353,1.0338,-10.7615,-10.7463,8.8698,-3.9713,1.0195,0.7382,853.3467,-10.8,-23.46,-36.06,142.934,28.879,26.153,49.17430465,-121.6805571,1.96000004
5.009,-0.5077,-0.6353,1.0338,-10.7615,-10.7463,8.8698,-2.6365,0.9822,0.5539,853.3467,-10.8,-23.46,-36.06,142.934,28.879,26.153,49.17430465,-121.6805571,1.96000004
5.012,-0.5077,-0.6353,1.0338,-12.3268,-11.5522,13.8397,-2.6365,0.9822,0.5539,853.3467,-10.8,-23.46,-36.06,142.934,28.879,26.153,49.17430465,-121.6805571,1.96000004
5.044,-0.4627,-0.6963,0.8037,-12.3268,-11.5522,13.8397,-2.6365,0.9822,0.5539,853.3467,-10.8,-23.46,-36.06,141.421,36.901,29.93,49.17430465,-121.6805571,1.96000004
5.047,-0.4627,-0.6963,0.8037,-12.3268,-11.5522,13.8397,-2.6365,0.9822,0.5539,853.3467,-8.4,-19.56,-36.42,141.57,36.901,29.93,49.17430465,-121.6805571,1.96000004
5.049,-0.4627,-0.6963,0.8037,-12.3268,-11.5522,13.8397,-0.9939,0.6147,0.4719,853.3467,-8.4,-19.56,-36.42,141.57,36.901,29.93,49.17430465,-121.6805571,1.96000004
5.05,-0.4627,-0.6963,0.8037,-11.448,-12.4219,12.0042,-0.9939,0.6147,0.4719,853.3467,-8.4,-19.56,-36.42,141.57,36.901,29.93,49.17430465,-121.6805571,1.96000004
5.083,-0.4627,-0.6963,0.8037,-11.448,-12.4219,12.0042,-0.9939,0.6147,0.4719,853.2217,-8.4,-19.56,-36.42,141.57,36.901,29.93,49.17430465,-121.6805571,1.96000004
5.095,-0.4627,-0.6963,0.8037,-11.448,-12.4219,12.0042,-0.9939,0.6147,0.4719,853.2217,-8.4,-19.56,-36.42,141.57,36.901,29.93,49.17430465,-121.6805571,1.96000004
5.114,-0.6982,-0.7745,0.3224,-11.448,-12.4219,12.0042,-0.9939,0.6147,0.4719,853.2217,-8.4,-19.56,-36.42,117.696,45.202,65.214,49.17430465,-121.6805571,1.96000004
5.12,-0.6982,-0.7745,0.3224,-11.448,-12.4219,12.0042,-0.9939,0.6147,0.4719,853.2217,-6.12,-15.66,-36.66,116.659,45.202,65.214,49.17430465,-121.6805571,1.96000004
5.126,-0.6982,-0.7745,0.3224,-11.448,-12.4219,12.0042,0.0916,1.1537,-0.5667,853.2217,-6.12,-15.66,-36.66,116.659,45.202,65.214,49.17430465,-121.6805571,1.96000004
5.131,-0.6982,-0.7745,0.3224,-13.2692,-13.7172,7.3226,0.0916,1.1537,-0.5667,853.2217,-6.12,-15.66,-36.66,116.659,45.202,65.214,49.17430465,-121.6805571,1.96000004
5.177,-0.4373,-0.9006,0.6302,-13.2692,-13.7172,7.3226,0.0916,1.1537,-0.5667,853.2217,-6.12,-15.66,-36.66,139.566,49.576,34.755,49.17430465,-121.6805571,1.96000004
5.181,-0.4373,-0.9006,0.6302,-13.2692,-13.7172,7.3226,0.0916,1.1537,-0.5667,853.2217,-3.84,-11.52,-36.84,140.055,49.576,34.755,49.17430465,-121.6805571,1.96000004
5.186,-0.4373,-0.9006,0.6302,-13.2692,-13.7172,7.3226,-0.5401,1.6437,0.0629,853.2217,-3.84,-11.52,-36.84,140.055,49.576,34.755,49.17430465,-121.6805571,1.96000004
5.192,-0.4373,-0.9006,0.6302,-10.4373,-15.4182,10.0319,-0.5401,1.6437,0.0629,853.2217,-3.84,-11.52,-36.84,140.055,49.576,34.755,49.17430465,-121.6805571,1.96000004
5.229,-0.7329,-0.8454,0.2174,-10.4373,-15.4182,10.0319,-0.5401,1.6437,0.0629,853.2217,-3.84,-11.52,-36.84,109.321,47.876,73.481,49.17430465,-121.6805571,1.96000004
5.231,-0.7329,-0.8454,0.2174,-10.4373,-15.4182,10.0319,-0.5401,1.6437,0.0629,853.2217,4.08,-11.76,-44.4,115.952,47.876,73.481,49.17430465,-121.6805571,1.96000004
5.232,-0.7329,-0.8454,0.2174,-10.4373,-15.4182,10.0319,-0.1268,0.7638,0.2184,853.2217,4.08,-11.76,-44.4,115.952,47.876,73.481,49.17430465,-121.6805571,1.96000004
5.233,-0.7329,-0.8454,0.2174,-13.4661,-15.0214,5.4922,-0.1268,0.7638,0.2184,853.2217,4.08,-11.76,-44.4,115.952,47.876,73.481,49.17430465,-121.6805571,1.96000004
5.258,-0.7329,-0.8454,0.2174,-13.4661,-15.0214,5.4922,-0.1268,0.7638,0.2184,853.1221,4.08,-11.76,-44.4,115.952,47.876,73.481,49.17430465,-121.6805571,1.96000004
5.259,-0.7329,-0.8454,0.2174,-13.4661,-15.0214,5.4922,-0.1268,0.7638,0.2184,853.1221,4.08,-11.76,-44.4,115.952,47.876,73.481,49.17430465,-121.6805571,1.96000004
5.284,-1.117,-0.5854,-0.0665,-13.4661,-15.0214,5.4922,-0.1268,0.7638,0.2184,853.1221,4.08,-11.76,-44.4,103.968,27.618,93.408,49.17430465,-121.6805571,1.96000004
5.285,-1.117,-0.5854,-0.0665,-13.4661,-15.0214,5.4922,-0.1268,0.7638,0.2184,853.1221,6.66,-7.5,-44.34,100.784,27.618,93.408,49.17430465,-121.6805571,1.96000004
5.287,-1.117,-0.5854,-0.0665,-13.4661,-15.0214,5.4922,-0.2823,-0.5625,0.8799,853.1221,6.66,-7.5,-44.34,100.784,27.618,93.408,49.17430465,-121.6805571,1.96000004
5.288,-1.117,-0.5854,-0.0665,-17.6264,-12.3485,2.1473,-0.2823,-0.5625,0.8799,853.1221,6.66,-7.5,-44.34,100.784,27.618,93.408,49.17430465,-121.6805571,1.96000004
5.342,-0.6176,-0.4432,0.4353,-17.6264,-12.3485,2.1473,-0.2823,-0.5625,0.8799,853.1221,6.66,-7.5,-44.34,124.351,30.396,54.824,49.17430465,-121.6805571,1.96000004
5.343,-0.6176,-0.4432,0.4353,-17.6264,-12.3485,2.1473,-0.2823,-0.5625,0.8799,853.1221,9.3,-3.36,-44.1,122.564,30.396,54.824,49.17430465,-121.6805571,1.96000004
5.344,-0.6176,-0.4432,0.4353,-17.6264,-12.3485,2.1473,-1.0578,-1.7641,0.4389,853.1221,9.3,-3.36,-44.1,122.564,30.396,54.824,49.17430465,-121.6805571,1.96000004
5.347,-0.6176,-0.4432,0.4353,-12.6316,-10.9974,7.2009,-1.0578,-1.7641,0.4389,853.1221,9.3,-3.36,-44.1,122.564,30.396,54.824,49.17430465,-121.6805571,1.96000004
5.403,-0.3611,-0.3431,0.3136,-12.6316,-10.9974,7.2009,-1.0578,-1.7641,0.4389,853.1221,9.3,-3.36,-44.1,131.045,35.652,49.023,49.17430465,-121.6805571,1.96000004
5.407,-0.3611,-0.3431,0.3136,-12.6316,-10.9974,7.2009,-1.0578,-1.7641,0.4389,853.1221,11.94,0.72,-43.8,130.308,35.652,49.023,49.17430465,-121.6805571,1.96000004
5.409,-0.3611,-0.3431,0.3136,-12.6316,-10.9974,7.2009,-0.1907,-0.6328,-0.1342,853.1221,11.94,0.72,-43.8,130.308,35.652,49.023,49.17430465,-121.6805571,1.96000004
5.411,-0.3611,-0.3431,0.3136,-9.8332,-9.7201,7.0889,-0.1907,-0.6328,-0.1342,853.1221,11.94,0.72,-43.8,130.308,35.652,49.023,49.17430465,-121.6805571,1.96000004
5.439,-0.3611,-0.3431,0.3136,-9.8332,-9.7201,7.0889,-0.1907,-0.6328,-0.1342,853.1655,11.94,0.72,-43.8,130.308,35.652,49.023,49.17430465,-121.6805571,1.96000004
5.441,-0.3611,-0.3431,0.3136,-9.8332,-9.7201,7.0889,-0.1907,-0.6328,-0.1342,853.1655,11.94,0.72,-43.8,130.308,35.652,49.023,49.17430465,-121.6805571,1.96000004
5.463,-0.9689,-0.4432,0.534,-9.8332,-9.7201,7.0889,-0.1907,-0.6328,-0.1342,853.1655,11.94,0.72,-43.8,108.778,21.833,61.14,49.17430465,-121.6805571,1.96000004
5.464,-0.9689,-0.4432,0.534,-9.8332,-9.7201,7.0889,-0.1907,-0.6328,-0.1342,853.1655,14.64,4.74,-43.5,104.762,21.833,61.14,49.17430465,-121.6805571,1.96000004
5.468,-0.9689,-0.4432,0.534,-9.8332,-9.7201,7.0889,0.1577,-0.7468,-0.2141,853.1655,14.64,4.74,-43.5,104.762,21.833,61.14,49.17430465,-121.6805571,1.96000004
5.47,-0.9689,-0.4432,0.534,-15.9756,-10.0903,9.8324,0.1577,-0.7468,-0.2141,853.1655,14.64,4.74,-43.5,104.762,21.833,61.14,49.17430465,-121.6805571,1.96000004
5.523,-0.8609,-0.433,1.1369,-15.9756,-10.0903,9.8324,0.1577,-0.7468,-0.2141,853.1655,14.64,4.74,-43.5,119.059,16.888,37.134,49.17430465,-121.6805571,1.96000004
5.525,-0.8609,-0.433,1.1369,-15.9756,-10.0903,9.8324,0.1577,-0.7468,-0.2141,853.1655,17.52,8.7,-43.14,111.427,16.888,37.134,49.17430465,-121.6805571,1.96000004
5.527,-0.8609,-0.433,1.1369,-15.9756,-10.0903,9.8324,-1.0567,-1.4818,-0.2578,853.1655,17.52,8.7,-43.14,111.427,16.888,37.134,49.17430465,-121.6805571,1.96000004
5.528,-0.8609,-0.433,1.1369,-14.6013,-10.744,15.1309,-1.0567,-1.4818,-0.2578,853.1655,17.52,8.7,-43.14,111.427,16.888,37.134,49.17430465,-121.6805571,1.96000004
5.585,-0.234,-0.9758,0.0429,-14.6013,-10.744,15.1309,-1.0567,-1.4818,-0.2578,853.1655,17.52,8.7,-43.14,119.528,76.296,79.604,49.17428734,-121.6805783,1.75
5.586,-0.234,-0.9758,0.0429,-14.6013,-10.744,15.1309,-1.0567,-1.4818,-0.2578,853.1655,20.28,12.66,-43.26,121.641,76.296,79.604,49.17428734,-121.6805783,1.75
5.588,-0.234,-0.9758,0.0429,-14.6013,-10.744,15.1309,-0.5454,-0.5422,-0.3505,853.1655,20.28,12.66,-43.26,121.641,76.296,79.604,49.17428734,-121.6805783,1.75
5.59,-0.234,-0.9758,0.0429,-8.0136,-16.5029,4.331,-0.5454,-0.5422,-0.3505,853.1655,20.28,12.66,-43.26,121.641,76.296,79.604,49.17428734,-121.6805783,1.75
5.618,-0.234,-0.9758,0.0429,-8.0136,-16.5029,4.331,-0.5454,-0.5422,-0.3505,853.2957,20.28,12.66,-43.26,121.641,76.296,79.604,49.17428734,-121.6805783,1.75
5.62,-0.234,-0.9758,0.0429,-8.0136,-16.5029,4.331,-0.5454,-0.5422,-0.3505,853.2957,20.28,12.66,-43.26,121.641,76.296,79.604,49.17428734,-121.6805783,1.75
5.642,-0.3445,-0.795,0.5667,-8.0136,-16.5029,4.331,-0.5454,-0.5422,-0.3505,853.2957,20.28,12.66,-43.26,169.73,50.166,31.292,49.17428734,-121.6805783,1.75
5.644,-0.3445,-0.795,0.5667,-8.0136,-16.5029,4.331,-0.5454,-0.5422,-0.3505,853.2957,23.04,16.56,-43.02,174.342,50.166,31.292,49.17428734,-121.6805783,1.75
5.645,-0.3445,-0.795,0.5667,-8.0136,-16.5029,4.331,-0.2258,0.0085,-0.0895,853.2957,23.04,16.56,-43.02,174.342,50.166,31.292,49.17428734,-121.6805783,1.75
5.647,-0.3445,-0.795,0.5667,-8.5996,-15.1269,9.4363,-0.2258,0.0085,-0.0895,853.2957,23.04,16.56,-43.02,174.342,50.166,31.292,49.17428734,-121.6805783,1.75
5.704,-0.3034,-1.0188,0.084,-8.5996,-15.1269,9.4363,-0.2258,0.0085,-0.0895,853.2957,23.04,16.56,-43.02,127.695,72.828,74.529,49.17428734,-121.6805783,1.75
5.711,-0.3034,-1.0188,0.084,-8.5996,-15.1269,9.4363,-0.2258,0.0085,-0.0895,853.2957,25.56,20.52,-42.48,129.674,72.828,74.529,49.17428734,-121.6805783,1.75
5.713,-0.3034,-1.0188,0.084,-8.5996,-15.1269,9.4363,0.5955,2.3138,-0.5103,853.2957,25.56,20.52,-42.48,129.674,72.828,74.529,49.17428734,-121.6805783,1.75
5.714,-0.3034,-1.0188,0.084,-7.9455,-17.4275,4.8293,0.5955,2.3138,-0.5103,853.2957,25.56,20.52,-42.48,129.674,72.828,74.529,49.17428734,-121.6805783,1.75
5.763,-0.4295,-0.9514,0.6346,-7.9455,-17.4275,4.8293,0.5955,2.3138,-0.5103,853.2957,25.56,20.52,-42.48,174.131,51.15,34.088,49.17428734,-121.6805783,1.75
5.764,-0.4295,-0.9514,0.6346,-7.9455,-17.4275,4.8293,0.5955,2.3138,-0.5103,853.2957,27.66,24.12,-41.64,178.964,51.15,34.088,49.17428734,-121.6805783,1.75
5.768,-0.4295,-0.9514,0.6346,-7.9455,-17.4275,4.8293,2.1412,1.5478,-0.7414,853.2957,27.66,24.12,-41.64,178.964,51.15,34.088,49.17428734,-121.6805783,1.75
5.77,-0.4295,-0.9514,0.6346,-9.2091,-16.4157,10.7881,2.1412,1.5478,-0.7414,853.2957,27.66,24.12,-41.64,178.964,51.15,34.088,49.17428734,-121.6805783,1.75
5.797,-0.4295,-0.9514,0.6346,-9.2091,-16.4157,10.7881,2.1412,1.5478,-0.7414,853.3489,27.66,24.12,-41.64,178.964,51.15,34.088,49.17428734,-121.6805783,1.75
5.799,-0.4295,-0.9514,0.6346,-9.2091,-16.4157,10.7881,2.1412,1.5478,-0.7414,853.3489,27.66,24.12,-41.64,178.964,51.15,34.088,49.17428734,-121.6805783,1.75
5.823,-0.6127,-0.9592,-0.0992,-9.2091,-16.4157,10.7881,2.1412,1.5478,-0.7414,853.3489,27.66,24.12,-41.64,95.308,57.093,99.201,49.17428734,-121.6805783,1.75
5.827,-0.6127,-0.9592,-0.0992,-9.2091,-16.4157,10.7881,2.1412,1.5478,-0.7414,853.3489,28.62,27.06,-40.56,94.579,57.093,99.201,49.17428734,-121.6805783,1.75
5.828,-0.6127,-0.9592,-0.0992,-9.2091,-16.4157,10.7881,0.376,0.6796,-0.3217,853.3489,28.62,27.06,-40.56,94.579,57.093,99.201,49.17428734,-121.6805783,1.75
5.83,-0.6127,-0.9592,-0.0992,-10.8798,-16.4913,3.7306,0.376,0.6796,-0.3217,853.3489,28.62,27.06,-40.56,94.579,57.093,99.201,49.17428734,-121.6805783,1.75
5.882,-0.6137,-0.8454,0.1754,-10.8798,-16.4913,3.7306,0.376,0.6796,-0.3217,853.3489,28.62,27.06,-40.56,115.047,52.947,74.054,49.17428734,-121.6805783,1.75
5.884,-0.6137,-0.8454,0.1754,-10.8798,-16.4913,3.7306,0.376,0.6796,-0.3217,853.3489,29.04,29.22,-39.54,113.956,52.947,74.054,49.17428734,-121.6805783,1.75
5.888,-0.6137,-0.8454,0.1754,-10.8798,-16.4913,3.7306,0.7436,0.5923,-0.8959,853.3489,29.04,29.22,-39.54,113.956,52.947,74.054,49.17428734,-121.6805783,1.75
5.89,-0.6137,-0.8454,0.1754,-11.3303,-15.3927,5.8877,0.7436,0.5923,-0.8959,853.3489,29.04,29.22,-39.54,113.956,52.947,74.054,49.17428734,-121.6805783,1.75
5.942,-0.4324,-0.7858,0.1758,-11.3303,-15.3927,5.8877,0.7436,0.5923,-0.8959,853.3489,29.04,29.22,-39.54,129.276,59.286,67.871,49.17428734,-121.6805783,1.75
5.944,-0.4324,-0.7858,0.1758,-11.3303,-15.3927,5.8877,0.7436,0.5923,-0.8959,853.3489,29.1,30.66,-38.88,128.748,59.286,67.871,49.17428734,-121.6805783,1.75
5.948,-0.4324,-0.7858,0.1758,-11.3303,-15.3927,5.8877,0.017,-0.1715,-0.7212,853.3489,29.1,30.66,-38.88,128.748,59.286,67.871,49.17428734,-121.6805783,1.75
5.949,-0.4324,-0.7858,0.1758,-8.898,-15.3537,5.708,0.017,-0.1715,-0.7212,853.3489,29.1,30.66,-38.88,128.748,59.286,67.871,49.17428734,-121.6805783,1.75
5.978,-0.4324,-0.7858,0.1758,-8.898,-15.3537,5.708,0.017,-0.1715,-0.7212,853.3477,29.1,30.66,-38.88,128.748,59.286,67.871,49.17428734,-121.6805783,1.75
5.981,-0.4324,-0.7858,0.1758,-8.898,-15.3537,5.708,0.017,-0.1715,-0.7212,853.3477,29.1,30.66,-38.88,128.748,59.286,67.871,49.17428734,-121.6805783,1.75
6.008,-0.2404,-0.8742,0.2394,-8.898,-15.3537,5.708,0.017,-0.1715,-0.7212,853.3477,29.1,30.66,-38.88,168.236,68.791,45.124,49.17428734,-121.6805783,1.75
6.011,-0.2404,-0.8742,0.2394,-8.898,-15.3537,5.708,0.017,-0.1715,-0.7212,853.3477,28.86,31.5,-38.58,168.08,68.791,45.124,49.17428734,-121.6805783,1.75
6.014,-0.2404,-0.8742,0.2394,-8.898,-15.3537,5.708,0.1598,0.5177,-0.2972,853.3477,28.86,31.5,-38.58,168.08,68.791,45.124,49.17428734,-121.6805783,1.75
6.016,-0.2404,-0.8742,0.2394,-6.8175,-16.479,6.0424,0.1598,0.5177,-0.2972,853.3477,28.86,31.5,-38.58,168.08,68.791,45.124,49.17428734,-121.6805783,1.75
6.074,-0.2492,-0.8791,0.4094,-6.8175,-16.479,6.0424,0.1598,0.5177,-0.2972,853.3477,28.86,31.5,-38.58,-170.356,61.401,31.328,49.17428734,-121.6805783,1.75
6.077,-0.2492,-0.8791,0.4094,-6.8175,-16.479,6.0424,0.1598,0.5177,-0.2972,853.3477,28.68,32.34,-38.4,-170.261,61.401,31.328,49.17428734,-121.6805783,1.75
6.08,-0.2492,-0.8791,0.4094,-6.8175,-16.479,6.0424,-0.1651,0.0458,-0.7915,853.3477,28.68,32.34,-38.4,-170.261,61.401,31.328,49.17428734,-121.6805783,1.75
6.082,-0.2492,-0.8791,0.4094,-6.238,-16.9194,7.5893,-0.1651,0.0458,-0.7915,853.3477,28.68,32.34,-38.4,-170.261,61.401,31.328,49.17428734,-121.6805783,1.75
6.122,-0.4676,-0.3299,0.6029,-6.238,-16.9194,7.5893,-0.1651,0.0458,-0.7915,853.3477,28.68,32.34,-38.4,4.672,23.382,37.797,49.17428734,-121.6805783,1.75
6.124,-0.4676,-0.3299,0.6029,-6.238,-16.9194,7.5893,-0.1651,0.0458,-0.7915,853.3477,28.38,32.94,-38.16,4.837,23.382,37.797,49.17428734,-121.6805783,1.75
6.131,-0.4676,-0.3299,0.6029,-6.238,-16.9194,7.5893,0.0543,0.9566,0.1683,853.3477,28.38,32.94,-38.16,4.837,23.382,37.797,49.17428734,-121.6805783,1.75
6.133,-0.4676,-0.3299,0.6029,-8.7532,-11.2499,9.7163,0.0543,0.9566,0.1683,853.3477,28.38,32.94,-38.16,4.837,23.382,37.797,49.17428734,-121.6805783,1.75
6.158,-0.4676,-0.3299,0.6029,-8.7532,-11.2499,9.7163,0.0543,0.9566,0.1683,853.1768,28.38,32.94,-38.16,4.837,23.382,37.797,49.17428734,-121.6805783,1.75
6.164,-0.4676,-0.3299,0.6029,-8.7532,-11.2499,9.7163,0.0543,0.9566,0.1683,853.1768,28.38,32.94,-38.16,4.837,23.382,37.797,49.17428734,-121.6805783,1.75
6.194,-0.4383,-0.5859,0.5413,-8.7532,-11.2499,9.7163,0.0543,0.9566,0.1683,853.1768,28.38,32.94,-38.16,160.023,40.071,38.996,49.17428734,-121.6805783,1.75
6.199,-0.4383,-0.5859,0.5413,-8.7532,-11.2499,9.7163,0.0543,0.9566,0.1683,853.1768,27.9,33.42,-38.04,154.661,40.071,38.996,49.17428734,-121.6805783,1.75
6.203,-0.4383,-0.5859,0.5413,-8.7532,-11.2499,9.7163,1.0003,0.7052,-0.0107,853.1768,27.9,33.42,-38.04,154.661,40.071,38.996,49.17428734,-121.6805783,1.75
6.207,-0.4383,-0.5859,0.5413,-8.8973,-12.9639,10.0833,1.0003,0.7052,-0.0107,853.1768,27.9,33.42,-38.04,154.661,40.071,38.996,49.17428734,-121.6805783,1.75
6.252,-0.644,-0.5502,0.6601,-8.8973,-12.9639,10.0833,1.0003,0.7052,-0.0107,853.1768,27.9,33.42,-38.04,54.154,30.824,44.294,49.17428734,-121.6805783,1.75
6.256,-0.644,-0.5502,0.6601,-8.8973,-12.9639,10.0833,1.0003,0.7052,-0.0107,853.1768,27.36,33.66,-38.1,53.793,30.824,44.294,49.17428734,-121.6805783,1.75
6.261,-0.644,-0.5502,0.6601,-8.8973,-12.9639,10.0833,-0.3047,0.8575,0.4602,853.1768,27.36,33.66,-38.1,53.793,30.824,44.294,49.17428734,-121.6805783,1.75
6.265,-0.644,-0.5502,0.6601,-11.5131,-12.1143,11.3599,-0.3047,0.8575,0.4602,853.1768,27.36,33.66,-38.1,53.793,30.824,44.294,49.17428734,-121.6805783,1.75
6.301,-0.7026,-0.5957,0.4592,-11.5131,-12.1143,11.3599,-0.3047,0.8575,0.4602,853.1768,27.36,33.66,-38.1,82.818,35.362,56.831,49.17428734,-121.6805783,1.75
6.303,-0.7026,-0.5957,0.4592,-11.5131,-12.1143,11.3599,-0.3047,0.8575,0.4602,853.1768,26.7,33.96,-38.28,81.39,35.362,56.831,49.17428734,-121.6805783,1.75
6.305,-0.7026,-0.5957,0.4592,-11.5131,-12.1143,11.3599,-0.0426,-0.3771,0.8213,853.1768,26.7,33.96,-38.28,81.39,35.362,56.831,49.17428734,-121.6805783,1.75
6.308,-0.7026,-0.5957,0.4592,-12.5098,-12.387,9.1531,-0.0426,-0.3771,0.8213,853.1768,26.7,33.96,-38.28,81.39,35.362,56.831,49.17428734,-121.6805783,1.75
6.341,-0.7026,-0.5957,0.4592,-12.5098,-12.387,9.1531,-0.0426,-0.3771,0.8213,853.3345,26.7,33.96,-38.28,81.39,35.362,56.831,49.17428734,-121.6805783,1.75
6.351,-0.7026,-0.5957,0.4592,-12.5098,-12.387,9.1531,-0.0426,-0.3771,0.8213,853.3345,26.7,33.96,-38.28,81.39,35.362,56.831,49.17428734,-121.6805783,1.75
6.363,-0.8785,-0.4721,-0.2058,-12.5098,-12.387,9.1531,-0.0426,-0.3771,0.8213,853.3345,26.7,33.96,-38.28,63.007,27.617,103.182,49.17428734,-121.6805783,1.75
6.365,-0.8785,-0.4721,-0.2058,-12.5098,-12.387,9.1531,-0.0426,-0.3771,0.8213,853.3345,26.16,34.2,-38.4,62.514,27.617,103.182,49.17428734,-121.6805783,1.75
6.369,-0.8785,-0.4721,-0.2058,-12.5098,-12.387,9.1531,0.9097,-1.4264,1.4892,853.3345,26.16,34.2,-38.4,62.514,27.617,103.182,49.17428734,-121.6805783,1.75
6.371,-0.8785,-0.4721,-0.2058,-14.5084,-10.2033,3.4852,0.9097,-1.4264,1.4892,853.3345,26.16,34.2,-38.4,62.514,27.617,103.182,49.17428734,-121.6805783,1.75
6.439,-0.7832,-1.3056,1.1843,-14.5084,-10.2033,3.4852,0.9097,-1.4264,1.4892,853.3345,26.16,34.2,-38.4,-174.194,42.599,33.478,49.17428734,-121.6805783,1.75
6.447,-0.7832,-1.3056,1.1843,-14.5084,-10.2033,3.4852,0.9097,-1.4264,1.4892,853.3345,25.62,34.5,-38.52,-178.827,42.599,33.478,49.17428734,-121.6805783,1.75
6.453,-0.7832,-1.3056,1.1843,-14.5084,-10.2033,3.4852,1.4477,0.6786,0.5401,853.3345,25.62,34.5,-38.52,-178.827,42.599,33.478,49.17428734,-121.6805783,1.75
6.458,-0.7832,-1.3056,1.1843,-13.9309,-17.7146,17.3374,1.4477,0.6786,0.5401,853.3345,25.62,34.5,-38.52,-178.827,42.599,33.478,49.17428734,-121.6805783,1.75
6.492,-0.9772,-0.882,0.4167,-13.9309,-17.7146,17.3374,1.4477,0.6786,0.5401,853.3345,25.62,34.5,-38.52,85.857,39.7,66.905,49.17428734,-121.6805783,1.75
6.499,-0.9772,-0.882,0.4167,-13.9309,-17.7146,17.3374,1.4477,0.6786,0.5401,853.3345,25.08,35.4,-39.54,84.419,39.7,66.905,49.17428734,-121.6805783,1.75
6.504,-0.9772,-0.882,0.4167,-13.9309,-17.7146,17.3374,-0.2738,1.2655,0.2599,853.3345,25.08,35.4,-39.54,84.419,39.7,66.905,49.17428734,-121.6805783,1.75
6.51,-0.9772,-0.882,0.4167,-16.7394,-12.81,9.3288,-0.2738,1.2655,0.2599,853.3345,25.08,35.4,-39.54,84.419,39.7,66.905,49.17428734,-121.6805783,1.75
6.523,-0.9772,-0.882,0.4167,-16.7394,-12.81,9.3288,-0.2738,1.2655,0.2599,853.3896,25.08,35.4,-39.54,84.419,39.7,66.905,49.17428734,-121.6805783,1.75
6.531,-0.9772,-0.882,0.4167,-16.7394,-12.81,9.3288,-0.2738,1.2655,0.2599,853.3896,25.08,35.4,-39.54,84.419,39.7,66.905,49.17428734,-121.6805783,1.75
6.548,-0.8448,-0.7628,-0.3098,-16.7394,-12.81,9.3288,-0.2738,1.2655,0.2599,853.3896,25.08,35.4,-39.54,65.782,40.288,110.141,49.17428734,-121.6805783,1.75
6.55,-0.8448,-0.7628,-0.3098,-16.7394,-12.81,9.3288,-0.2738,1.2655,0.2599,853.3896,24.84,36.54,-40.68,64.947,40.288,110.141,49.17428734,-121.6805783,1.75
6.552,-0.8448,-0.7628,-0.3098,-16.7394,-12.81,9.3288,-0.5614,0.8234,0.0597,853.3896,24.84,36.54,-40.68,64.947,40.288,110.141,49.17428734,-121.6805783,1.75
6.553,-0.8448,-0.7628,-0.3098,-15.8194,-12.8804,0.1416,-0.5614,0.8234,0.0597,853.3896,24.84,36.54,-40.68,64.947,40.288,110.141,49.17428734,-121.6805783,1.75
6.604,-0.8961,-0.2527,0.1783,-15.8194,-12.8804,0.1416,-0.5614,0.8234,0.0597,853.3896,24.84,36.54,-40.68,52.796,15.459,78.748,49.17428734,-121.6805783,1.75
6.607,-0.8961,-0.2527,0.1783,-15.8194,-12.8804,0.1416,-0.5614,0.8234,0.0597,853.3896,24.78,37.62,-41.64,52.512,15.459,78.748,49.17428734,-121.6805783,1.75
6.611,-0.8961,-0.2527,0.1783,-15.8194,-12.8804,0.1416,1.1654,-0.5625,-0.4155,853.3896,24.78,37.62,-41.64,52.512,15.459,78.748,49.17428734,-121.6805783,1.75
6.612,-0.8961,-0.2527,0.1783,-16.7136,-7.4726,4.6274,1.1654,-0.5625,-0.4155,853.3896,24.78,37.62,-41.64,52.512,15.459,78.748,49.17428734,-121.6805783,1.75
6.671,-0.795,-0.2976,0.6527,-16.7136,-7.4726,4.6274,1.1654,-0.5625,-0.4155,853.3896,24.78,37.62,-41.64,35.038,16.138,50.612,49.17428734,-121.6805783,1.75
6.676,-0.795,-0.2976,0.6527,-16.7136,-7.4726,4.6274,1.1654,-0.5625,-0.4155,853.3896,25.02,38.28,-42.3,35.088,16.138,50.612,49.17428734,-121.6805783,1.75
6.681,-0.795,-0.2976,0.6527,-16.7136,-7.4726,4.6274,0.5039,-1.7268,0.0373,853.3896,25.02,38.28,-42.3,35.088,16.138,50.612,49.17428734,-121.6805783,1.75
6.685,-0.795,-0.2976,0.6527,-15.3962,-7.6455,10.3924,0.5039,-1.7268,0.0373,853.3896,25.02,38.28,-42.3,35.088,16.138,50.612,49.17428734,-121.6805783,1.75
6.698,-0.795,-0.2976,0.6527,-15.3962,-7.6455,10.3924,0.5039,-1.7268,0.0373,853.3503,25.02,38.28,-42.3,35.088,16.138,50.612,49.17428734,-121.6805783,1.75
6.702,-0.795,-0.2976,0.6527,-15.3962,-7.6455,10.3924,0.5039,-1.7268,0.0373,853.3503,25.02,38.28,-42.3,35.088,16.138,50.612,49.17428734,-121.6805783,1.75
6.726,-0.5165,-0.4794,0.3434,-15.3962,-7.6455,10.3924,0.5039,-1.7268,0.0373,853.3503,25.02,38.28,-42.3,81.424,37.701,56.377,49.17428734,-121.6805783,1.75
6.731,-0.5165,-0.4794,0.3434,-15.3962,-7.6455,10.3924,0.5039,-1.7268,0.0373,853.3503,25.32,38.88,-43.08,81.463,37.701,56.377,49.17428734,-121.6805783,1.75
6.734,-0.5165,-0.4794,0.3434,-15.3962,-7.6455,10.3924,-1.3721,-0.8426,0.0479,853.3503,25.32,38.88,-43.08,81.463,37.701,56.377,49.17428734,-121.6805783,1.75
6.737,-0.5165,-0.4794,0.3434,-12.0655,-10.0699,7.6381,-1.3721,-0.8426,0.0479,853.3503,25.32,38.88,-43.08,81.463,37.701,56.377,49.17428734,-121.6805783,1.75
6.789,-0.5297,-0.4975,0.532,-12.0655,-10.0699,7.6381,-1.3721,-0.8426,0.0479,853.3503,25.32,38.88,-43.08,65.482,33.53,44.871,49.17428734,-121.6805783,1.75
6.793,-0.5297,-0.4975,0.532,-12.0655,-10.0699,7.6381,-1.3721,-0.8426,0.0479,853.3503,25.62,39.48,-43.8,65.606,33.53,44.871,49.17428734,-121.6805783,1.75
6.796,-0.5297,-0.4975,0.532,-12.0655,-10.0699,7.6381,-1.7044,-1.2101,0.2567,853.3503,25.62,39.48,-43.8,65.606,33.53,44.871,49.17428734,-121.6805783,1.75
6.799,-0.5297,-0.4975,0.532,-12.1676,-10.513,9.1771,-1.7044,-1.2101,0.2567,853.3503,25.62,39.48,-43.8,65.606,33.53,44.871,49.17428734,-121.6805783,1.75
6.844,-0.5722,-0.709,0.5975,-12.1676,-10.513,9.1771,-1.7044,-1.2101,0.2567,853.3503,25.62,39.48,-43.8,100.295,40.599,43.759,49.17428734,-121.6805783,1.75
6.848,-0.5722,-0.709,0.5975,-12.1676,-10.513,9.1771,-1.7044,-1.2101,0.2567,853.3503,25.98,40.14,-44.52,100.092,40.599,43.759,49.17428734,-121.6805783,1.75
6.851,-0.5722,-0.709,0.5975,-12.1676,-10.513,9.1771,-1.2165,-0.277,0.3633,853.3503,25.98,40.14,-44.52,100.092,40.599,43.759,49.17428734,-121.6805783,1.75
6.854,-0.5722,-0.709,0.5975,-11.823,-12.9875,10.4453,-1.2165,-0.277,0.3633,853.3503,25.98,40.14,-44.52,100.092,40.599,43.759,49.17428734,-121.6805783,1.75
6.885,-0.5722,-0.709,0.5975,-11.823,-12.9875,10.4453,-1.2165,-0.277,0.3633,853.3608,25.98,40.14,-44.52,100.092,40.599,43.759,49.17428734,-121.6805783,1.75
6.893,-0.5722,-0.709,0.5975,-11.823,-12.9875,10.4453,-1.2165,-0.277,0.3633,853.3608,25.98,40.14,-44.52,100.092,40.599,43.759,49.17428734,-121.6805783,1.75
6.9,-0.4847,-0.8542,0.5648,-11.823,-12.9875,10.4453,-1.2165,-0.277,0.3633,853.3608,25.98,40.14,-44.52,141.957,48.933,40.637,49.17428734,-121.6805783,1.75
6.902,-0.4847,-0.8542,0.5648,-11.823,-12.9875,10.4453,-1.2165,-0.277,0.3633,853.3608,26.28,40.8,-45.24,141.536,48.933,40.637,49.17428734,-121.6805783,1.75
6.904,-0.4847,-0.8542,0.5648,-11.823,-12.9875,10.4453,-0.2855,-0.0895,0.6274,853.3608,26.28,40.8,-45.24,141.536,48.933,40.637,49.17428734,-121.6805783,1.75
6.908,-0.4847,-0.8542,0.5648,-10.4956,-14.8552,10.1294,-0.2855,-0.0895,0.6274,853.3608,26.28,40.8,-45.24,141.536,48.933,40.637,49.17428734,-121.6805783,1.75
6.959,-0.4114,-0.7716,0.6684,-10.4956,-14.8552,10.1294,-0.2855,-0.0895,0.6274,853.3608,26.28,40.8,-45.24,170.002,44.512,31.615,49.17428734,-121.6805783,1.75
6.96,-0.4114,-0.7716,0.6684,-10.4956,-14.8552,10.1294,-0.2855,-0.0895,0.6274,853.3608,26.58,41.46,-45.96,169.206,44.512,31.615,49.17428734,-121.6805783,1.75
6.962,-0.4114,-0.7716,0.6684,-10.4956,-14.8552,10.1294,0.1449,0.2216,0.5667,853.3608,26.58,41.46,-45.96,169.206,44.512,31.615,49.17428734,-121.6805783,1.75
6.964,-0.4114,-0.7716,0.6684,-9.6749,-13.9915,11.3438,0.1449,0.2216,0.5667,853.3608,26.58,41.46,-45.96,169.206,44.512,31.615,49.17428734,-121.6805783,1.75
7.019,-0.556,-0.8043,0.4333,-9.6749,-13.9915,11.3438,0.1449,0.2216,0.5667,853.3608,26.58,41.46,-45.96,115.937,48.767,52.07,49.17428734,-121.6805783,1.75
7.021,-0.556,-0.8043,0.4333,-9.6749,-13.9915,11.3438,0.1449,0.2216,0.5667,853.3608,26.88,42.24,-46.74,115.514,48.767,52.07,49.17428734,-121.6805783,1.75
7.022,-0.556,-0.8043,0.4333,-9.6749,-13.9915,11.3438,0.3057,0.6434,-0.5252,853.3608,26.88,42.24,-46.74,115.514,48.767,52.07,49.17428734,-121.6805783,1.75
7.023,-0.556,-0.8043,0.4333,-11.0818,-14.4731,8.8299,0.3057,0.6434,-0.5252,853.3608,26.88,42.24,-46.74,115.514,48.767,52.07,49.17428734,-121.6805783,1.75
7.055,-0.556,-0.8043,0.4333,-11.0818,-14.4731,8.8299,0.3057,0.6434,-0.5252,853.1292,26.88,42.24,-46.74,115.514,48.767,52.07,49.17428734,-121.6805783,1.75
7.056,-0.556,-0.8043,0.4333,-11.0818,-14.4731,8.8299,0.3057,0.6434,-0.5252,853.1292,26.88,42.24,-46.74,115.514,48.767,52.07,49.17428734,-121.6805783,1.75
7.084,-0.7065,-0.8121,0.4524,-11.0818,-14.4731,8.8299,0.3057,0.6434,-0.5252,853.1292,26.88,42.24,-46.74,96.709,44.069,57.369,49.17428734,-121.6805783,1.75
7.088,-0.7065,-0.8121,0.4524,-11.0818,-14.4731,8.8299,0.3057,0.6434,-0.5252,853.1292,27.18,43.08,-47.58,96.315,44.069,57.369,49.17428734,-121.6805783,1.75
7.093,-0.7065,-0.8121,0.4524,-11.0818,-14.4731,8.8299,0.3366,1.1047,-0.2013,853.1292,27.18,43.08,-47.58,96.315,44.069,57.369,49.17428734,-121.6805783,1.75
7.096,-0.7065,-0.8121,0.4524,-12.6303,-14.7113,8.6778,0.3366,1.1047,-0.2013,853.1292,27.18,43.08,-47.58,96.315,44.069,57.369,49.17428734,-121.6805783,1.75
7.156,-0.6093,-0.6235,0.1353,-12.6303,-14.7113,8.6778,0.3366,1.1047,-0.2013,853.1292,27.18,43.08,-47.58,83.76,44.972,77.482,49.17428734,-121.6805783,1.75
7.162,-0.6093,-0.6235,0.1353,-12.6303,-14.7113,8.6778,0.3366,1.1047,-0.2013,853.1292,27.48,43.92,-48.42,83.518,44.972,77.482,49.17428734,-121.6805783,1.75
7.172,-0.6093,-0.6235,0.1353,-12.6303,-14.7113,8.6778,-0.4037,0.3803,-1.1047,853.1292,27.48,43.92,-48.42,83.518,44.972,77.482,49.17428734,-121.6805783,1.75
7.177,-0.6093,-0.6235,0.1353,-12.1756,-12.9767,4.5712,-0.4037,0.3803,-1.1047,853.1292,27.48,43.92,-48.42,83.518,44.972,77.482,49.17428734,-121.6805783,1.75
7.213,-0.3606,-0.6421,0.1372,-12.1756,-12.9767,4.5712,-0.4037,0.3803,-1.1047,853.1292,27.48,43.92,-48.42,111.752,58.999,69.164,49.17428734,-121.6805783,1.75
7.218,-0.3606,-0.6421,0.1372,-12.1756,-12.9767,4.5712,-0.4037,0.3803,-1.1047,853.1292,27.78,45.06,-49.2,111.261,58.999,69.164,49.17428734,-121.6805783,1.75
7.222,-0.3606,-0.6421,0.1372,-12.1756,-12.9767,4.5712,-0.2045,0.8927,-0.359,853.1292,27.78,45.06,-49.2,111.261,58.999,69.164,49.17428734,-121.6805783,1.75
7.227,-0.3606,-0.6421,0.1372,-9.5527,-13.6895,3.6315,-0.2045,0.8927,-0.359,853.1292,27.78,45.06,-49.2,111.261,58.999,69.164,49.17428734,-121.6805783,1.75
7.235,-0.3606,-0.6421,0.1372,-9.5527,-13.6895,3.6315,-0.2045,0.8927,-0.359,853.1934,27.78,45.06,-49.2,111.261,58.999,69.164,49.17428734,-121.6805783,1.75
7.239,-0.3606,-0.6421,0.1372,-9.5527,-13.6895,3.6315,-0.2045,0.8927,-0.359,853.1934,27.78,45.06,-49.2,111.261,58.999,69.164,49.17428734,-121.6805783,1.75
7.264,-0.6386,-0.7139,0.384,-9.5527,-13.6895,3.6315,-0.2045,0.8927,-0.359,853.1934,27.78,45.06,-49.2,93.027,43.773,58.982,49.17428734,-121.6805783,1.75
7.269,-0.6386,-0.7139,0.384,-9.5527,-13.6895,3.6315,-0.2045,0.8927,-0.359,853.1934,28.08,46.32,-49.98,92.057,43.773,58.982,49.17428734,-121.6805783,1.75
7.273,-0.6386,-0.7139,0.384,-9.5527,-13.6895,3.6315,0.6903,0.4112,0.2269,853.1934,28.08,46.32,-49.98,92.057,43.773,58.982,49.17428734,-121.6805783,1.75
7.276,-0.6386,-0.7139,0.384,-12.1865,-14.2663,6.6229,0.6903,0.4112,0.2269,853.1934,28.08,46.32,-49.98,92.057,43.773,58.982,49.17428734,-121.6805783,1.75
7.324,-0.5761,-0.9182,0.4104,-12.1865,-14.2663,6.6229,0.6903,0.4112,0.2269,853.1934,28.08,46.32,-49.98,117.709,52.392,54.535,49.17428734,-121.6805783,1.75
7.328,-0.5761,-0.9182,0.4104,-12.1865,-14.2663,6.6229,0.6903,0.4112,0.2269,853.1934,28.38,47.7,-50.82,116.745,52.392,54.535,49.17428734,-121.6805783,1.75
7.332,-0.5761,-0.9182,0.4104,-12.1865,-14.2663,6.6229,0.4783,0.7052,-0.5444,853.1934,28.38,47.7,-50.82,116.745,52.392,54.535,49.17428734,-121.6805783,1.75
7.335,-0.5761,-0.9182,0.4104,-11.5647,-16.2952,6.8295,0.4783,0.7052,-0.5444,853.1934,28.38,47.7,-50.82,116.745,52.392,54.535,49.17428734,-121.6805783,1.75
7.396,-0.4036,-0.6787,0.4636,-11.5647,-16.2952,6.8295,0.4783,0.7052,-0.5444,853.1934,28.38,47.7,-50.82,130.466,47.835,41.04,49.17428734,-121.6805783,1.75
7.403,-0.4036,-0.6787,0.4636,-11.5647,-16.2952,6.8295,0.4783,0.7052,-0.5444,853.1934,28.68,48.96,-51.6,129.063,47.835,41.04,49.17428734,-121.6805783,1.75
7.414,-0.4036,-0.6787,0.4636,-11.5647,-16.2952,6.8295,0.6519,0.3739,-0.2376,853.1934,28.68,48.96,-51.6,129.063,47.835,41.04,49.17428734,-121.6805783,1.75
7.415,-0.4036,-0.6787,0.4636,-9.5359,-13.7977,8.2799,0.6519,0.3739,-0.2376,853.1934,28.68,48.96,-51.6,129.063,47.835,41.04,49.17428734,-121.6805783,1.75
7.42,-0.4036,-0.6787,0.4636,-9.5359,-13.7977,8.2799,0.6519,0.3739,-0.2376,853.345,28.68,48.96,-51.6,129.063,47.835,41.04,49.17428734,-121.6805783,1.75
7.422,-0.4036,-0.6787,0.4636,-9.5359,-13.7977,8.2799,0.6519,0.3739,-0.2376,853.345,28.68,48.96,-51.6,129.063,47.835,41.04,49.17428734,-121.6805783,1.75
7.439,-0.3899,-0.8151,0.3752,-9.5359,-13.7977,8.2799,0.6519,0.3739,-0.2376,853.345,28.68,48.96,-51.6,139.069,56.42,46.102,49.17428734,-121.6805783,1.75
7.441,-0.3899,-0.8151,0.3752,-9.5359,-13.7977,8.2799,0.6519,0.3739,-0.2376,853.345,28.98,49.56,-51.42,139.262,56.42,46.102,49.17428734,-121.6805783,1.75
7.443,-0.3899,-0.8151,0.3752,-9.5359,-13.7977,8.2799,0.6413,0.0884,0.3995,853.345,28.98,49.56,-51.42,139.262,56.42,46.102,49.17428734,-121.6805783,1.75
7.444,-0.3899,-0.8151,0.3752,-8.9395,-15.0677,8.1317,0.6413,0.0884,0.3995,853.345,28.98,49.56,-51.42,139.262,56.42,46.102,49.17428734,-121.6805783,1.75
7.511,-0.5389,-0.6949,0.5193,-8.9395,-15.0677,8.1317,0.6413,0.0884,0.3995,853.345,28.98,49.56,-51.42,97.258,42.874,46.061,49.17428734,-121.6805783,1.75
7.516,-0.5389,-0.6949,0.5193,-8.9395,-15.0677,8.1317,0.6413,0.0884,0.3995,853.345,29.28,49.8,-51.18,96.938,42.874,46.061,49.17428734,-121.6805783,1.75
7.523,-0.5389,-0.6949,0.5193,-8.9395,-15.0677,8.1317,0.5124,0.6583,0.3707,853.345,29.28,49.8,-51.18,96.938,42.874,46.061,49.17428734,-121.6805783,1.75
7.531,-0.5389,-0.6949,0.5193,-10.4944,-13.6811,9.7565,0.5124,0.6583,0.3707,853.345,29.28,49.8,-51.18,96.938,42.874,46.061,49.17428734,-121.6805783,1.75
7.56,-0.943,-0.6817,0.3302,-10.4944,-13.6811,9.7565,0.5124,0.6583,0.3707,853.345,29.28,49.8,-51.18,67.461,34.303,70.7,49.17428734,-121.6805783,1.75
7.562,-0.943,-0.6817,0.3302,-10.4944,-13.6811,9.7565,0.5124,0.6583,0.3707,853.345,29.46,50.04,-51,67.167,34.303,70.7,49.17428734,-121.6805783,1.75
7.563,-0.943,-0.6817,0.3302,-10.4944,-13.6811,9.7565,0.5923,-0.7063,0.5507,853.345,29.46,50.04,-51,67.167,34.303,70.7,49.17428734,-121.6805783,1.75
7.569,-0.943,-0.6817,0.3302,-15.4468,-13.0435,7.3808,0.5923,-0.7063,0.5507,853.345,29.46,50.04,-51,67.167,34.303,70.7,49.17428734,-121.6805783,1.75
7.594,-0.943,-0.6817,0.3302,-15.4468,-13.0435,7.3808,0.5923,-0.7063,0.5507,853.3687,29.46,50.04,-51,67.167,34.303,70.7,49.17429647,-121.6805877,0.94999999
7.596,-0.943,-0.6817,0.3302,-15.4468,-13.0435,7.3808,0.5923,-0.7063,0.5507,853.3687,29.46,50.04,-51,67.167,34.303,70.7,49.17429647,-121.6805877,0.94999999
7.619,-1.1199,-0.537,0.0806,-15.4468,-13.0435,7.3808,0.5923,-0.7063,0.5507,853.3687,29.46,50.04,-51,57.648,25.562,85.886,49.17429647,-121.6805877,0.94999999
7.622,-1.1199,-0.537,0.0806,-15.4468,-13.0435,7.3808,0.5923,-0.7063,0.5507,853.3687,29.4,50.46,-51,57.312,25.562,85.886,49.17429647,-121.6805877,0.94999999
7.631,-1.1199,-0.537,0.0806,-15.4468,-13.0435,7.3808,-0.0362,-0.2013,0.2376,853.3687,29.4,50.46,-51,57.312,25.562,85.886,49.17429647,-121.6805877,0.94999999
7.634,-1.1199,-0.537,0.0806,-17.2576,-11.3132,5.2722,-0.0362,-0.2013,0.2376,853.3687,29.4,50.46,-51,57.312,25.562,85.886,49.17429647,-121.6805877,0.94999999
7.683,-0.7236,-0.6533,0.3141,-17.2576,-11.3132,5.2722,-0.0362,-0.2013,0.2376,853.3687,29.4,50.46,-51,76.058,39.631,66.535,49.17429647,-121.6805877,0.94999999
7.687,-0.7236,-0.6533,0.3141,-17.2576,-11.3132,5.2722,-0.0362,-0.2013,0.2376,853.3687,29.34,50.82,-51.06,75.633,39.631,66.535,49.17429647,-121.6805877,0.94999999
7.692,-0.7236,-0.6533,0.3141,-17.2576,-11.3132,5.2722,-0.604,-0.5529,0.1044,853.3687,29.34,50.82,-51.06,75.633,39.631,66.535,49.17429647,-121.6805877,0.94999999
7.695,-0.7236,-0.6533,0.3141,-13.4438,-12.6514,7.1739,-0.604,-0.5529,0.1044,853.3687,29.34,50.82,-51.06,75.633,39.631,66.535,49.17429647,-121.6805877,0.94999999
7.739,-0.6963,-0.4921,0.1651,-13.4438,-12.6514,7.1739,-0.604,-0.5529,0.1044,853.3687,29.34,50.82,-51.06,66.093,34.516,76.661,49.17429647,-121.6805877,0.94999999
7.741,-0.6963,-0.4921,0.1651,-13.4438,-12.6514,7.1739,-0.604,-0.5529,0.1044,853.3687,29.34,51.12,-51.06,65.818,34.516,76.661,49.17429647,-121.6805877,0.94999999
7.742,-0.6963,-0.4921,0.1651,-13.4438,-12.6514,7.1739,-1.1057,-0.4559,-0.0021,853.3687,29.34,51.12,-51.06,65.818,34.516,76.661,49.17429647,-121.6805877,0.94999999
7.744,-0.6963,-0.4921,0.1651,-13.5026,-11.063,5.1697,-1.1057,-0.4559,-0.0021,853.3687,29.34,51.12,-51.06,65.818,34.516,76.661,49.17429647,-121.6805877,0.94999999
7.775,-0.6963,-0.4921,0.1651,-13.5026,-11.063,5.1697,-1.1057,-0.4559,-0.0021,853.2139,29.34,51.12,-51.06,65.818,34.516,76.661,49.17429647,-121.6805877,0.94999999
7.778,-0.6963,-0.4921,0.1651,-13.5026,-11.063,5.1697,-1.1057,-0.4559,-0.0021,853.2139,29.34,51.12,-51.06,65.818,34.516,76.661,49.17429647,-121.6805877,0.94999999
7.801,-0.6259,-0.6993,0.2511,-13.5026,-11.063,5.1697,-1.1057,-0.4559,-0.0021,853.2139,29.34,51.12,-51.06,86.542,46.037,68.142,49.17429647,-121.6805877,0.94999999
7.804,-0.6259,-0.6993,0.2511,-13.5026,-11.063,5.1697,-1.1057,-0.4559,-0.0021,853.2139,29.28,51.42,-51.06,86.156,46.037,68.142,49.17429647,-121.6805877,0.94999999
7.807,-0.6259,-0.6993,0.2511,-13.5026,-11.063,5.1697,-1.4456,-0.3089,0.0831,853.2139,29.28,51.42,-51.06,86.156,46.037,68.142,49.17429647,-121.6805877,0.94999999
7.811,-0.6259,-0.6993,0.2511,-12.6424,-13.3492,5.8676,-1.4456,-0.3089,0.0831,853.2139,29.28,51.42,-51.06,86.156,46.037,68.142,49.17429647,-121.6805877,0.94999999
7.873,-0.5634,-0.647,0.2164,-12.6424,-13.3492,5.8676,-1.4456,-0.3089,0.0831,853.2139,29.28,51.42,-51.06,87.383,46.992,68.988,49.17429647,-121.6805877,0.94999999
7.877,-0.5634,-0.647,0.2164,-12.6424,-13.3492,5.8676,-1.4456,-0.3089,0.0831,853.2139,29.22,51.72,-51.06,87.007,46.992,68.988,49.17429647,-121.6805877,0.94999999
7.882,-0.5634,-0.647,0.2164,-12.6424,-13.3492,5.8676,-1.6629,0.5582,0.0096,853.2139,29.22,51.72,-51.06,87.007,46.992,68.988,49.17429647,-121.6805877,0.94999999
7.886,-0.5634,-0.647,0.2164,-12.048,-13.1898,4.7006,-1.6629,0.5582,0.0096,853.2139,29.22,51.72,-51.06,87.007,46.992,68.988,49.17429647,-121.6805877,0.94999999
7.923,-0.451,-0.6753,0.2755,-12.048,-13.1898,4.7006,-1.6629,0.5582,0.0096,853.2139,29.22,51.72,-51.06,107.113,51.954,58.579,49.17429647,-121.6805877,0.94999999
7.926,-0.451,-0.6753,0.2755,-12.048,-13.1898,4.7006,-1.6629,0.5582,0.0096,853.2139,29.16,52.02,-51.06,106.679,51.954,58.579,49.17429647,-121.6805877,0.94999999
7.931,-0.451,-0.6753,0.2755,-12.048,-13.1898,4.7006,-1.0802,1.0067,0.0213,853.2139,29.16,52.02,-51.06,106.679,51.954,58.579,49.17429647,-121.6805877,0.94999999
7.934,-0.451,-0.6753,0.2755,-10.8334,-13.7753,4.652,-1.0802,1.0067,0.0213,853.2139,29.16,52.02,-51.06,106.679,51.954,58.579,49.17429647,-121.6805877,0.94999999
7.962,-0.451,-0.6753,0.2755,-10.8334,-13.7753,4.652,-1.0802,1.0067,0.0213,853.3428,29.16,52.02,-51.06,106.679,51.954,58.579,49.17429647,-121.6805877,0.94999999
7.97,-0.451,-0.6753,0.2755,-10.8334,-13.7753,4.652,-1.0802,1.0067,0.0213,853.3428,29.16,52.02,-51.06,106.679,51.954,58.579,49.17429647,-121.6805877,0.94999999
7.984,-0.7378,-0.8112,0.2863,-10.8334,-13.7753,4.652,-1.0802,1.0067,0.0213,853.3428,29.16,52.02,-51.06,84.376,45.707,68.794,49.17429647,-121.6805877,0.94999999
7.99,-0.7378,-0.8112,0.2863,-10.8334,-13.7753,4.652,-1.0802,1.0067,0.0213,853.3428,29.16,52.26,-50.82,83.989,45.707,68.794,49.17429647,-121.6805877,0.94999999
7.994,-0.7378,-0.8112,0.2863,-10.8334,-13.7753,4.652,-0.1726,0.5699,0.1704,853.3428,29.16,52.26,-50.82,83.989,45.707,68.794,49.17429647,-121.6805877,0.94999999
7.997,-0.7378,-0.8112,0.2863,-13.459,-15.2308,4.8923,-0.1726,0.5699,0.1704,853.3428,29.16,52.26,-50.82,83.989,45.707,68.794,49.17429647,-121.6805877,0.94999999
8.045,-1.2445,-0.6397,0.2789,-13.459,-15.2308,4.8923,-0.1726,0.5699,0.1704,853.3428,29.16,52.26,-50.82,56.157,26.636,77.367,49.17429647,-121.6805877,0.94999999
8.051,-1.2445,-0.6397,0.2789,-13.459,-15.2308,4.8923,-0.1726,0.5699,0.1704,853.3428,29.22,52.62,-50.46,55.63,26.636,77.367,49.17429647,-121.6805877,0.94999999
8.062,-1.2445,-0.6397,0.2789,-13.459,-15.2308,4.8923,-0.604,1.1484,0.0788,853.3428,29.22,52.62,-50.46,55.63,26.636,77.367,49.17429647,-121.6805877,0.94999999
8.063,-1.2445,-0.6397,0.2789,-18.5375,-13.5572,4.4165,-0.604,1.1484,0.0788,853.3428,29.22,52.62,-50.46,55.63,26.636,77.367,49.17429647,-121.6805877,0.94999999
8.098,-0.5595,-0.9817,0.7153,-18.5375,-13.5572,4.4165,-0.604,1.1484,0.0788,853.3428,29.22,52.62,-50.46,129.528,47.231,38.031,49.17429647,-121.6805877,0.94999999
8.1,-0.5595,-0.9817,0.7153,-18.5375,-13.5572,4.4165,-0.604,1.1484,0.0788,853.3428,29.4,53.16,-49.86,128.567,47.231,38.031,49.17429647,-121.6805877,0.94999999
8.101,-0.5595,-0.9817,0.7153,-18.5375,-13.5572,4.4165,-0.0415,-0.9534,-0.3121,853.3428,29.4,53.16,-49.86,128.567,47.231,38.031,49.17429647,-121.6805877,0.94999999
8.103,-0.5595,-0.9817,0.7153,-11.3181,-17.0981,9.5005,-0.0415,-0.9534,-0.3121,853.3428,29.4,53.16,-49.86,128.567,47.231,38.031,49.17429647,-121.6805877,0.94999999
8.137,-0.5595,-0.9817,0.7153,-11.3181,-17.0981,9.5005,-0.0415,-0.9534,-0.3121,853.3098,29.4,53.16,-49.86,128.567,47.231,38.031,49.17429647,-121.6805877,0.94999999
8.141,-0.5595,-0.9817,0.7153,-11.3181,-17.0981,9.5005,-0.0415,-0.9534,-0.3121,853.3098,29.4,53.16,-49.86,128.567,47.231,38.031,49.17429647,-121.6805877,0.94999999
8.169,-0.8394,-1.0398,0.0991,-11.3181,-17.0981,9.5005,-0.0415,-0.9534,-0.3121,853.3098,29.4,53.16,-49.86,82.165,50.893,83.265,49.17429647,-121.6805877,0.94999999
8.174,-0.8394,-1.0398,0.0991,-11.3181,-17.0981,9.5005,-0.0415,-0.9534,-0.3121,853.3098,29.58,53.58,-49.32,81.854,50.893,83.265,49.17429647,-121.6805877,0.94999999
8.179,-0.8394,-1.0398,0.0991,-11.3181,-17.0981,9.5005,0.6306,0.3164,-0.3047,853.3098,29.58,53.58,-49.32,81.854,50.893,83.265,49.17429647,-121.6805877,0.94999999
8.183,-0.8394,-1.0398,0.0991,-14.1048,-17.776,2.9897,0.6306,0.3164,-0.3047,853.3098,29.58,53.58,-49.32,81.854,50.893,83.265,49.17429647,-121.6805877,0.94999999
8.221,-0.6943,-0.84,0.0508,-14.1048,-17.776,2.9897,0.6306,0.3164,-0.3047,853.3098,29.58,53.58,-49.32,79.511,50.348,85.819,49.17429647,-121.6805877,0.94999999
8.225,-0.6943,-0.84,0.0508,-14.1048,-17.776,2.9897,0.6306,0.3164,-0.3047,853.3098,29.82,53.88,-48.78,79.344,50.348,85.819,49.17429647,-121.6805877,0.94999999
8.23,-0.6943,-0.84,0.0508,-14.1048,-17.776,2.9897,1.1111,0.2248,-0.4804,853.3098,29.82,53.88,-48.78,79.344,50.348,85.819,49.17429647,-121.6805877,0.94999999
8.233,-0.6943,-0.84,0.0508,-12.644,-15.8537,2.4915,1.1111,0.2248,-0.4804,853.3098,29.82,53.88,-48.78,79.344,50.348,85.819,49.17429647,-121.6805877,0.94999999
8.28,-0.5052,-0.5761,-0.2116,-12.644,-15.8537,2.4915,1.1111,0.2248,-0.4804,853.3098,29.82,53.88,-48.78,61.37,46.446,112.728,49.17429647,-121.6805877,0.94999999
8.283,-0.5052,-0.5761,-0.2116,-12.644,-15.8537,2.4915,1.1111,0.2248,-0.4804,853.3098,30,54.24,-48.3,61.215,46.446,112.728,49.17429647,-121.6805877,0.94999999
8.286,-0.5052,-0.5761,-0.2116,-12.644,-15.8537,2.4915,0.1076,0.8852,-0.2493,853.3098,30,54.24,-48.3,61.215,46.446,112.728,49.17429647,-121.6805877,0.94999999
8.292,-0.5052,-0.5761,-0.2116,-11.2153,-13.0421,-0.5804,0.1076,0.8852,-0.2493,853.3098,30,54.24,-48.3,61.215,46.446,112.728,49.17429647,-121.6805877,0.94999999
8.314,-0.5052,-0.5761,-0.2116,-11.2153,-13.0421,-0.5804,0.1076,0.8852,-0.2493,853.3657,30,54.24,-48.3,61.215,46.446,112.728,49.17429647,-121.6805877,0.94999999
8.317,-0.5052,-0.5761,-0.2116,-11.2153,-13.0421,-0.5804,0.1076,0.8852,-0.2493,853.3657,30,54.24,-48.3,61.215,46.446,112.728,49.17429647,-121.6805877,0.94999999
8.34,-0.3968,-0.7745,0.127,-11.2153,-13.0421,-0.5804,0.1076,0.8852,-0.2493,853.3657,30,54.24,-48.3,108.646,61.726,72.253,49.17429647,-121.6805877,0.94999999
8.343,-0.3968,-0.7745,0.127,-11.2153,-13.0421,-0.5804,0.1076,0.8852,-0.2493,853.3657,30.18,54.6,-47.76,108.685,61.726,72.253,49.17429647,-121.6805877,0.94999999
8.347,-0.3968,-0.7745,0.127,-11.2153,-13.0421,-0.5804,0.6711,0.6967,0.081,853.3657,30.18,54.6,-47.76,108.685,61.726,72.253,49.17429647,-121.6805877,0.94999999
8.351,-0.3968,-0.7745,0.127,-9.8799,-15.2272,2.6393,0.6711,0.6967,0.081,853.3657,30.18,54.6,-47.76,108.685,61.726,72.253,49.17429647,-121.6805877,0.94999999
8.408,-0.5385,-0.7188,0.0825,-9.8799,-15.2272,2.6393,0.6711,0.6967,0.081,853.3657,30.18,54.6,-47.76,85.393,52.844,81.288,49.17429647,-121.6805877,0.94999999
8.413,-0.5385,-0.7188,0.0825,-9.8799,-15.2272,2.6393,0.6711,0.6967,0.081,853.3657,30.36,55.02,-47.22,85.092,52.844,81.288,49.17429647,-121.6805877,0.94999999
8.421,-0.5385,-0.7188,0.0825,-9.8799,-15.2272,2.6393,0.8426,0.9779,0.2961,853.3657,30.36,55.02,-47.22,85.092,52.844,81.288,49.17429647,-121.6805877,0.94999999
8.426,-0.5385,-0.7188,0.0825,-11.1115,-14.8075,2.1727,0.8426,0.9779,0.2961,853.3657,30.36,55.02,-47.22,85.092,52.844,81.288,49.17429647,-121.6805877,0.94999999
8.463,-0.7989,-0.4569,0.2438,-11.1115,-14.8075,2.1727,0.8426,0.9779,0.2961,853.3657,30.36,55.02,-47.22,52.637,28.681,73.032,49.17429647,-121.6805877,0.94999999
8.469,-0.7989,-0.4569,0.2438,-11.1115,-14.8075,2.1727,0.8426,0.9779,0.2961,853.3657,30.54,55.44,-46.56,51.733,28.681,73.032,49.17429647,-121.6805877,0.94999999
8.474,-0.7989,-0.4569,0.2438,-11.1115,-14.8075,2.1727,0.9183,-0.5209,0.3622,853.3657,30.54,55.44,-46.56,51.733,28.681,73.032,49.17429647,-121.6805877,0.94999999
8.478,-0.7989,-0.4569,0.2438,-14.1568,-11.7362,4.2447,0.9183,-0.5209,0.3622,853.3657,30.54,55.44,-46.56,51.733,28.681,73.032,49.17429647,-121.6805877,0.94999999
8.492,-0.7989,-0.4569,0.2438,-14.1568,-11.7362,4.2447,0.9183,-0.5209,0.3622,853.3843,30.54,55.44,-46.56,51.733,28.681,73.032,49.17429647,-121.6805877,0.94999999
8.493,-0.7989,-0.4569,0.2438,-14.1568,-11.7362,4.2447,0.9183,-0.5209,0.3622,853.3843,30.54,55.44,-46.56,51.733,28.681,73.032,49.17429647,-121.6805877,0.94999999
8.516,-0.429,-0.6289,0.2227,-14.1568,-11.7362,4.2447,0.9183,-0.5209,0.3622,853.3843,30.54,55.44,-46.56,99.818,52.454,62.561,49.17429647,-121.6805877,0.94999999
8.518,-0.429,-0.6289,0.2227,-14.1568,-11.7362,4.2447,0.9183,-0.5209,0.3622,853.3843,30.78,55.92,-45.96,99.334,52.454,62.561,49.17429647,-121.6805877,0.94999999
8.521,-0.429,-0.6289,0.2227,-14.1568,-11.7362,4.2447,0.2184,0.2141,0.278,853.3843,30.78,55.92,-45.96,99.334,52.454,62.561,49.17429647,-121.6805877,0.94999999
8.524,-0.429,-0.6289,0.2227,-10.4851,-13.2977,4.5955,0.2184,0.2141,0.278,853.3843,30.78,55.92,-45.96,99.334,52.454,62.561,49.17429647,-121.6805877,0.94999999
8.602,-0.6029,-0.7755,0.1534,-10.4851,-13.2977,4.5955,0.2184,0.2141,0.278,853.3843,30.78,55.92,-45.96,85.531,51.261,75.729,49.17429647,-121.6805877,0.94999999
8.604,-0.6029,-0.7755,0.1534,-10.4851,-13.2977,4.5955,0.2184,0.2141,0.278,853.3843,30.96,56.34,-45.3,85.049,51.261,75.729,49.17429647,-121.6805877,0.94999999
8.606,-0.6029,-0.7755,0.1534,-10.4851,-13.2977,4.5955,0.1459,0.3718,0.5145,853.3843,30.96,56.34,-45.3,85.049,51.261,75.729,49.17429647,-121.6805877,0.94999999
8.608,-0.6029,-0.7755,0.1534,-12.1329,-14.7288,4.0736,0.1459,0.3718,0.5145,853.3843,30.96,56.34,-45.3,85.049,51.261,75.729,49.17429647,-121.6805877,0.94999999
8.636,-0.6161,-0.752,0.3742,-12.1329,-14.7288,4.0736,0.1459,0.3718,0.5145,853.3843,30.96,56.34,-45.3,82.683,46.212,58.727,49.17429647,-121.6805877,0.94999999
8.638,-0.6161,-0.752,0.3742,-12.1329,-14.7288,4.0736,0.1459,0.3718,0.5145,853.3843,31.2,56.82,-44.64,81.352,46.212,58.727,49.17429647,-121.6805877,0.94999999
8.64,-0.6161,-0.752,0.3742,-12.1329,-14.7288,4.0736,0.3473,-0.1896,0.6626,853.3843,31.2,56.82,-44.64,81.352,46.212,58.727,49.17429647,-121.6805877,0.94999999
8.642,-0.6161,-0.752,0.3742,-12.1211,-14.6764,6.0724,0.3473,-0.1896,0.6626,853.3843,31.2,56.82,-44.64,81.352,46.212,58.727,49.17429647,-121.6805877,0.94999999
8.681,-0.6161,-0.752,0.3742,-12.1211,-14.6764,6.0724,0.3473,-0.1896,0.6626,853.3071,31.2,56.82,-44.64,81.352,46.212,58.727,49.17429647,-121.6805877,0.94999999
8.688,-0.6161,-0.752,0.3742,-12.1211,-14.6764,6.0724,0.3473,-0.1896,0.6626,853.3071,31.2,56.82,-44.64,81.352,46.212,58.727,49.17429647,-121.6805877,0.94999999
8.702,-0.7139,-0.7032,0.5061,-12.1211,-14.6764,6.0724,0.3473,-0.1896,0.6626,853.3071,31.2,56.82,-44.64,56.46,38.784,54.663,49.17429647,-121.6805877,0.94999999
8.704,-0.7139,-0.7032,0.5061,-12.1211,-14.6764,6.0724,0.3473,-0.1896,0.6626,853.3071,31.44,57.18,-44.04,54.72,38.784,54.663,49.17429647,-121.6805877,0.94999999
8.706,-0.7139,-0.7032,0.5061,-12.1211,-14.6764,6.0724,0.5848,0.0842,0.5582,853.3071,31.44,57.18,-44.04,54.72,38.784,54.663,49.17429647,-121.6805877,0.94999999
8.708,-0.7139,-0.7032,0.5061,-13.3451,-13.861,7.6577,0.5848,0.0842,0.5582,853.3071,31.44,57.18,-44.04,54.72,38.784,54.663,49.17429647,-121.6805877,0.94999999
8.755,-0.9816,-0.646,0.6752,-13.3451,-13.861,7.6577,0.5848,0.0842,0.5582,853.3071,31.44,57.18,-44.04,35.362,28.467,55.478,49.17429647,-121.6805877,0.94999999
8.756,-0.9816,-0.646,0.6752,-13.3451,-13.861,7.6577,0.5848,0.0842,0.5582,853.3071,31.8,57.54,-43.44,33.984,28.467,55.478,49.17429647,-121.6805877,0.94999999
8.758,-0.9816,-0.646,0.6752,-13.3451,-13.861,7.6577,0.4953,-0.2067,0.5316,853.3071,31.8,57.54,-43.44,33.984,28.467,55.478,49.17429647,-121.6805877,0.94999999
8.76,-0.9816,-0.646,0.6752,-16.1728,-12.4804,10.5428,0.4953,-0.2067,0.5316,853.3071,31.8,57.54,-43.44,33.984,28.467,55.478,49.17429647,-121.6805877,0.94999999
8.819,-1.0471,-0.4989,0.0351,-16.1728,-12.4804,10.5428,0.4953,-0.2067,0.5316,853.3071,31.8,57.54,-43.44,48.355,25.465,88.079,49.17429647,-121.6805877,0.94999999
8.822,-1.0471,-0.4989,0.0351,-16.1728,-12.4804,10.5428,0.4953,-0.2067,0.5316,853.3071,32.28,57.72,-42.9,48.006,25.465,88.079,49.17429647,-121.6805877,0.94999999
8.826,-1.0471,-0.4989,0.0351,-16.1728,-12.4804,10.5428,0.0149,0.4314,0.4996,853.3071,32.28,57.72,-42.9,48.006,25.465,88.079,49.17429647,-121.6805877,0.94999999
8.83,-1.0471,-0.4989,0.0351,-17.3793,-10.8755,3.4548,0.0149,0.4314,0.4996,853.3071,32.28,57.72,-42.9,48.006,25.465,88.079,49.17429647,-121.6805877,0.94999999
8.851,-1.0471,-0.4989,0.0351,-17.3793,-10.8755,3.4548,0.0149,0.4314,0.4996,853.384,32.28,57.72,-42.9,48.006,25.465,88.079,49.17429647,-121.6805877,0.94999999
8.852,-1.0471,-0.4989,0.0351,-17.3793,-10.8755,3.4548,0.0149,0.4314,0.4996,853.384,32.28,57.72,-42.9,48.006,25.465,88.079,49.17429647,-121.6805877,0.94999999
8.876,-0.836,-0.368,-0.476,-17.3793,-10.8755,3.4548,0.0149,0.4314,0.4996,853.384,32.28,57.72,-42.9,45.974,20.933,119.654,49.17429647,-121.6805877,0.94999999
8.877,-0.836,-0.368,-0.476,-17.3793,-10.8755,3.4548,0.0149,0.4314,0.4996,853.384,32.88,57.66,-42.3,46.048,20.933,119.654,49.17429647,-121.6805877,0.94999999
8.879,-0.836,-0.368,-0.476,-17.3793,-10.8755,3.4548,-0.3665,-1.1175,-0.1481,853.384,32.88,57.66,-42.3,46.048,20.933,119.654,49.17429647,-121.6805877,0.94999999
8.881,-0.836,-0.368,-0.476,-15.5461,-9.4688,-1.8839,-0.3665,-1.1175,-0.1481,853.384,32.88,57.66,-42.3,46.048,20.933,119.654,49.17429647,-121.6805877,0.94999999
8.937,-0.752,-0.5913,0.2003,-15.5461,-9.4688,-1.8839,-0.3665,-1.1175,-0.1481,853.384,32.88,57.66,-42.3,58.193,37.228,75.087,49.17429647,-121.6805877,0.94999999
8.94,-0.752,-0.5913,0.2003,-15.5461,-9.4688,-1.8839,-0.3665,-1.1175,-0.1481,853.384,33.54,57.48,-41.88,58.332,37.228,75.087,49.17429647,-121.6805877,0.94999999
8.943,-0.752,-0.5913,0.2003,-15.5461,-9.4688,-1.8839,-0.0788,-0.7521,-0.1044,853.384,33.54,57.48,-41.88,58.332,37.228,75.087,49.17429647,-121.6805877,0.94999999
8.946,-0.752,-0.5913,0.2003,-14.6805,-11.9671,4.1111,-0.0788,-0.7521,-0.1044,853.384,33.54,57.48,-41.88,58.332,37.228,75.087,49.17429647,-121.6805877,0.94999999
9.009,-0.6318,-0.5498,-0.0362,-14.6805,-11.9671,4.1111,-0.0788,-0.7521,-0.1044,853.384,33.54,57.48,-41.88,62.254,40.982,93.281,49.17429647,-121.6805877,0.94999999
9.015,-0.6318,-0.5498,-0.0362,-14.6805,-11.9671,4.1111,-0.0788,-0.7521,-0.1044,853.384,34.14,57.18,-41.58,62.763,40.982,93.281,49.17429647,-121.6805877,0.94999999
9.026,-0.6318,-0.5498,-0.0362,-14.6805,-11.9671,4.1111,-0.9321,-0.4016,-0.392,853.384,34.14,57.18,-41.58,62.763,40.982,93.281,49.17429647,-121.6805877,0.94999999
9.032,-0.6318,-0.5498,-0.0362,-13.5196,-11.6941,1.2864,-0.9321,-0.4016,-0.392,853.384,34.14,57.18,-41.58,62.763,40.982,93.281,49.17429647,-121.6805877,0.94999999
9.034,-0.6318,-0.5498,-0.0362,-13.5196,-11.6941,1.2864,-0.9321,-0.4016,-0.392,853.2795,34.14,57.18,-41.58,62.763,40.982,93.281,49.17429647,-121.6805877,0.94999999
9.039,-0.6318,-0.5498,-0.0362,-13.5196,-11.6941,1.2864,-0.9321,-0.4016,-0.392,853.2795,34.14,57.18,-41.58,62.763,40.982,93.281,49.17429647,-121.6805877,0.94999999
9.055,-0.2941,-0.453,0.3127,-13.5196,-11.6941,1.2864,-0.9321,-0.4016,-0.392,853.2795,34.14,57.18,-41.58,84.213,46.541,43.253,49.17429647,-121.6805877,0.94999999
9.057,-0.2941,-0.453,0.3127,-13.5196,-11.6941,1.2864,-0.9321,-0.4016,-0.392,853.2795,34.56,56.7,-41.52,92.441,46.541,43.253,49.17429647,-121.6805877,0.94999999
9.059,-0.2941,-0.453,0.3127,-13.5196,-11.6941,1.2864,-0.4527,-1.3518,-0.474,853.2795,34.56,56.7,-41.52,92.441,46.541,43.253,49.17429647,-121.6805877,0.94999999
9.061,-0.2941,-0.453,0.3127,-9.7921,-11.155,4.8889,-0.4527,-1.3518,-0.474,853.2795,34.56,56.7,-41.52,92.441,46.541,43.253,49.17429647,-121.6805877,0.94999999
9.115,-0.0821,-0.7105,0.4509,-9.7921,-11.155,4.8889,-0.4527,-1.3518,-0.474,853.2795,34.56,56.7,-41.52,-108.311,57.174,10.317,49.17429647,-121.6805877,0.94999999
9.117,-0.0821,-0.7105,0.4509,-9.7921,-11.155,4.8889,-0.4527,-1.3518,-0.474,853.2795,34.92,56.28,-41.46,-108.524,57.174,10.317,49.17429647,-121.6805877,0.94999999
9.119,-0.0821,-0.7105,0.4509,-9.7921,-11.155,4.8889,-0.1417,1.4051,-0.4495,853.2795,34.92,56.28,-41.46,-108.524,57.174,10.317,49.17429647,-121.6805877,0.94999999
9.121,-0.0821,-0.7105,0.4509,-7.2053,-14.0976,6.4916,-0.1417,1.4051,-0.4495,853.2795,34.92,56.28,-41.46,-108.524,57.174,10.317,49.17429647,-121.6805877,0.94999999
9.202,-1.1199,-1.3931,0.5643,-7.2053,-14.0976,6.4916,-0.1417,1.4051,-0.4495,853.2795,34.92,56.28,-41.46,88.36,48.007,63.258,49.17429647,-121.6805877,0.94999999
9.203,-1.1199,-1.3931,0.5643,-7.2053,-14.0976,6.4916,-0.1417,1.4051,-0.4495,853.2795,34.92,55.8,-41.58,89.334,48.007,63.258,49.17429647,-121.6805877,0.94999999
9.205,-1.1199,-1.3931,0.5643,-7.2053,-14.0976,6.4916,1.7939,0.8053,-2.5194,853.2795,34.92,55.8,-41.58,89.334,48.007,63.258,49.17429647,-121.6805877,0.94999999
9.208,-1.1199,-1.3931,0.5643,-16.8836,-21.1863,7.6507,1.7939,0.8053,-2.5194,853.2795,34.92,55.8,-41.58,89.334,48.007,63.258,49.17429647,-121.6805877,0.94999999
9.21,-1.1199,-1.3931,0.5643,-16.8836,-21.1863,7.6507,1.7939,0.8053,-2.5194,853.1277,34.92,55.8,-41.58,89.334,48.007,63.258,49.17429647,-121.6805877,0.94999999
9.212,-1.1199,-1.3931,0.5643,-16.8836,-21.1863,7.6507,1.7939,0.8053,-2.5194,853.1277,34.92,55.8,-41.58,89.334,48.007,63.258,49.17429647,-121.6805877,0.94999999
9.235,-0.5604,-0.4789,0.4006,-16.8836,-21.1863,7.6507,1.7939,0.8053,-2.5194,853.1277,34.92,55.8,-41.58,40.555,34.806,54.443,49.17429647,-121.6805877,0.94999999
9.237,-0.5604,-0.4789,0.4006,-16.8836,-21.1863,7.6507,1.7939,0.8053,-2.5194,853.1277,34.08,55.14,-41.7,42.108,34.806,54.443,49.17429647,-121.6805877,0.94999999
9.239,-0.5604,-0.4789,0.4006,-16.8836,-21.1863,7.6507,2.0293,2.1263,-0.3473,853.1277,34.08,55.14,-41.7,42.108,34.806,54.443,49.17429647,-121.6805877,0.94999999
9.24,-0.5604,-0.4789,0.4006,-11.4668,-12.2809,5.6298,2.0293,2.1263,-0.3473,853.1277,34.08,55.14,-41.7,42.108,34.806,54.443,49.17429647,-121.6805877,0.94999999
9.302,-1.1873,-1.2284,-0.0406,-11.4668,-12.2809,5.6298,2.0293,2.1263,-0.3473,853.1277,34.08,55.14,-41.7,70.854,45.958,91.959,49.17429647,-121.6805877,0.94999999
9.304,-1.1873,-1.2284,-0.0406,-11.4668,-12.2809,5.6298,2.0293,2.1263,-0.3473,853.1277,33.24,54.42,-41.7,70.719,45.958,91.959,49.17429647,-121.6805877,0.94999999
9.308,-1.1873,-1.2284,-0.0406,-11.4668,-12.2809,5.6298,-0.5209,1.1729,-1.5819,853.1277,33.24,54.42,-41.7,70.719,45.958,91.959,49.17429647,-121.6805877,0.94999999
9.311,-1.1873,-1.2284,-0.0406,-17.073,-20.0049,1.3754,-0.5209,1.1729,-1.5819,853.1277,33.24,54.42,-41.7,70.719,45.958,91.959,49.17429647,-121.6805877,0.94999999
9.355,-0.6762,-0.9377,0.6967,-17.073,-20.0049,1.3754,-0.5209,1.1729,-1.5819,853.1277,33.24,54.42,-41.7,66.344,44.003,44.146,49.17429647,-121.6805877,0.94999999
9.357,-0.6762,-0.9377,0.6967,-17.073,-20.0049,1.3754,-0.5209,1.1729,-1.5819,853.1277,32.46,53.7,-41.7,69.645,44.003,44.146,49.17429647,-121.6805877,0.94999999
9.358,-0.6762,-0.9377,0.6967,-17.073,-20.0049,1.3754,0.3217,-1.4498,-1.7566,853.1277,32.46,53.7,-41.7,69.645,44.003,44.146,49.17429647,-121.6805877,0.94999999
9.36,-0.6762,-0.9377,0.6967,-11.2793,-17.5983,8.7824,0.3217,-1.4498,-1.7566,853.1277,32.46,53.7,-41.7,69.645,44.003,44.146,49.17429647,-121.6805877,0.94999999
9.392,-0.6762,-0.9377,0.6967,-11.2793,-17.5983,8.7824,0.3217,-1.4498,-1.7566,853.1177,32.46,53.7,-41.7,69.645,44.003,44.146,49.17429647,-121.6805877,0.94999999
9.394,-0.6762,-0.9377,0.6967,-11.2793,-17.5983,8.7824,0.3217,-1.4498,-1.7566,853.1177,32.46,53.7,-41.7,69.645,44.003,44.146,49.17429647,-121.6805877,0.94999999
9.413,-0.4852,-0.9289,0.2355,-11.2793,-17.5983,8.7824,0.3217,-1.4498,-1.7566,853.1177,32.46,53.7,-41.7,121.019,59.862,64.114,49.17429647,-121.6805877,0.94999999
9.415,-0.4852,-0.9289,0.2355,-11.2793,-17.5983,8.7824,0.3217,-1.4498,-1.7566,853.1177,31.62,52.98,-41.7,120.101,59.862,64.114,49.17429647,-121.6805877,0.94999999
9.416,-0.4852,-0.9289,0.2355,-11.2793,-17.5983,8.7824,0.7446,0.7851,-1.2783,853.1177,31.62,52.98,-41.7,120.101,59.862,64.114,49.17429647,-121.6805877,0.94999999
9.418,-0.4852,-0.9289,0.2355,-8.7117,-17.856,4.2834,0.7446,0.7851,-1.2783,853.1177,31.62,52.98,-41.7,120.101,59.862,64.114,49.17429647,-121.6805877,0.94999999
9.477,-0.2394,-1.0745,-0.4198,-8.7117,-17.856,4.2834,0.7446,0.7851,-1.2783,853.1177,31.62,52.98,-41.7,49.933,65.785,150.302,49.17429647,-121.6805877,0.94999999
9.481,-0.2394,-1.0745,-0.4198,-8.7117,-17.856,4.2834,0.7446,0.7851,-1.2783,853.1177,30.72,52.26,-41.7,49.392,65.785,150.302,49.17429647,-121.6805877,0.94999999
9.484,-0.2394,-1.0745,-0.4198,-8.7117,-17.856,4.2834,-1.7364,1.273,-0.7744,853.1177,30.72,52.26,-41.7,49.392,65.785,150.302,49.17429647,-121.6805877,0.94999999
9.49,-0.2394,-1.0745,-0.4198,-5.991,-19.6306,-4.3806,-1.7364,1.273,-0.7744,853.1177,30.72,52.26,-41.7,49.392,65.785,150.302,49.17429647,-121.6805877,0.94999999
9.537,-0.4383,-0.8366,0.3708,-5.991,-19.6306,-4.3806,-1.7364,1.273,-0.7744,853.1177,30.72,52.26,-41.7,134.953,55.54,49.768,49.17429647,-121.6805877,0.94999999
9.54,-0.4383,-0.8366,0.3708,-5.991,-19.6306,-4.3806,-1.7364,1.273,-0.7744,853.1177,29.82,51.54,-41.7,133.215,55.54,49.768,49.17429647,-121.6805877,0.94999999
9.543,-0.4383,-0.8366,0.3708,-5.991,-19.6306,-4.3806,0.3856,0.5507,-0.5614,853.1177,29.82,51.54,-41.7,133.215,55.54,49.768,49.17429647,-121.6805877,0.94999999
9.546,-0.4383,-0.8366,0.3708,-6.9281,-17.6249,3.0186,0.3856,0.5507,-0.5614,853.1177,29.82,51.54,-41.7,133.215,55.54,49.768,49.17429647,-121.6805877,0.94999999
9.577,-0.4383,-0.8366,0.3708,-6.9281,-17.6249,3.0186,0.3856,0.5507,-0.5614,853.3137,29.82,51.54,-41.7,133.215,55.54,49.768,49.17429647,-121.6805877,0.94999999
9.581,-0.4383,-0.8366,0.3708,-6.9281,-17.6249,3.0186,0.3856,0.5507,-0.5614,853.3137,29.82,51.54,-41.7,133.215,55.54,49.768,49.17429647,-121.6805877,0.94999999
9.595,-0.427,-0.8732,0.3107,-6.9281,-17.6249,3.0186,0.3856,0.5507,-0.5614,853.3137,29.82,51.54,-41.7,132.75,58.835,53.962,49.17429084,-121.6806005,1.03999996
9.597,-0.427,-0.8732,0.3107,-6.9281,-17.6249,3.0186,0.3856,0.5507,-0.5614,853.3137,28.8,50.94,-41.58,130.997,58.835,53.962,49.17429084,-121.6806005,1.03999996
9.599,-0.427,-0.8732,0.3107,-6.9281,-17.6249,3.0186,1.1931,0.7308,-0.31,853.3137,28.8,50.94,-41.58,130.997,58.835,53.962,49.17429084,-121.6806005,1.03999996
9.601,-0.427,-0.8732,0.3107,-6.5139,-18.0627,2.4147,1.1931,0.7308,-0.31,853.3137,28.8,50.94,-41.58,130.997,58.835,53.962,49.17429084,-121.6806005,1.03999996
9.667,-0.1197,-0.1613,0.4045,-6.5139,-18.0627,2.4147,1.1931,0.7308,-0.31,853.3137,28.8,50.94,-41.58,-27.471,20.925,16.486,49.17429084,-121.6806005,1.03999996
9.672,-0.1197,-0.1613,0.4045,-6.5139,-18.0627,2.4147,1.1931,0.7308,-0.31,853.3137,27.66,50.52,-41.28,-26.086,20.925,16.486,49.17429084,-121.6806005,1.03999996
9.674,-0.1197,-0.1613,0.4045,-6.5139,-18.0627,2.4147,1.7737,0.6818,-0.849,853.3137,27.66,50.52,-41.28,-26.086,20.925,16.486,49.17429084,-121.6806005,1.03999996
9.675,-0.1197,-0.1613,0.4045,-3.1499,-11.1858,4.0444,1.7737,0.6818,-0.849,853.3137,27.66,50.52,-41.28,-26.086,20.925,16.486,49.17429084,-121.6806005,1.03999996
9.714,0.0767,0.3014,0.3112,-3.1499,-11.1858,4.0444,1.7737,0.6818,-0.849,853.3137,27.66,50.52,-41.28,-31.595,-43.242,-13.848,49.17429084,-121.6806005,1.03999996
9.715,0.0767,0.3014,0.3112,-3.1499,-11.1858,4.0444,1.7737,0.6818,-0.849,853.3137,26.46,50.22,-40.98,-30.82,-43.242,-13.848,49.17429084,-121.6806005,1.03999996
9.717,0.0767,0.3014,0.3112,-3.1499,-11.1858,4.0444,-0.0799,0.4229,-1.0749,853.3137,26.46,50.22,-40.98,-30.82,-43.242,-13.848,49.17429084,-121.6806005,1.03999996
9.719,0.0767,0.3014,0.3112,-1.0465,-6.6339,4.0552,-0.0799,0.4229,-1.0749,853.3137,26.46,50.22,-40.98,-30.82,-43.242,-13.848,49.17429084,-121.6806005,1.03999996
9.751,0.0767,0.3014,0.3112,-1.0465,-6.6339,4.0552,-0.0799,0.4229,-1.0749,853.1372,26.46,50.22,-40.98,-30.82,-43.242,-13.848,49.17429084,-121.6806005,1.03999996
9.754,0.0767,0.3014,0.3112,-1.0465,-6.6339,4.0552,-0.0799,0.4229,-1.0749,853.1372,26.46,50.22,-40.98,-30.82,-43.242,-13.848,49.17429084,-121.6806005,1.03999996
9.78,0.2101,-0.5776,0.3288,-1.0465,-6.6339,4.0552,-0.0799,0.4229,-1.0749,853.1372,26.46,50.22,-40.98,-75.705,55.961,-32.581,49.17429084,-121.6806005,1.03999996
9.784,0.2101,-0.5776,0.3288,-1.0465,-6.6339,4.0552,-0.0799,0.4229,-1.0749,853.1372,25.08,50.16,-40.62,-75.771,55.961,-32.581,49.17429084,-121.6806005,1.03999996
9.791,0.2101,-0.5776,0.3288,-1.0465,-6.6339,4.0552,-2.1881,1.7076,-0.0405,853.1372,25.08,50.16,-40.62,-75.771,55.961,-32.581,49.17429084,-121.6806005,1.03999996
9.793,0.2101,-0.5776,0.3288,0.4805,-15.3235,2.6705,-2.1881,1.7076,-0.0405,853.1372,25.08,50.16,-40.62,-75.771,55.961,-32.581,49.17429084,-121.6806005,1.03999996
9.834,-0.4031,-2.0014,1.8195,0.4805,-15.3235,2.6705,-2.1881,1.7076,-0.0405,853.1372,25.08,50.16,-40.62,-85.667,47.041,12.492,49.17429084,-121.6806005,1.03999996
9.835,-0.4031,-2.0014,1.8195,0.4805,-15.3235,2.6705,-2.1881,1.7076,-0.0405,853.1372,23.4,50.4,-40.08,-81.951,47.041,12.492,49.17429084,-121.6806005,1.03999996
9.838,-0.4031,-2.0014,1.8195,0.4805,-15.3235,2.6705,2.2296,1.6863,-1.078,853.1372,23.4,50.4,-40.08,-81.951,47.041,12.492,49.17429084,-121.6806005,1.03999996
