
time,gFx,gFy,gFz,ax,ay,az,wx,wy,wz,Latitude,Longitude,Speed (m/s),
0.0890,-0.1407,-0.1398,1.0163,0.0000,0.0000,0.0000,0.0000,0.0000,0.0000,0.00000000,0.00000000,0.00000000,
0.1080,-0.1407,-0.1398,1.0163,0.0000,0.0000,0.0000,0.1575,0.0277,0.6836,49.28019552,-122.98351186,0.00000000,
0.1460,-0.1229,0.0452,0.9052,0.0000,0.0000,0.0000,0.1575,0.0277,0.6836,49.28019552,-122.98351186,0.00000000,
0.1650,-0.1229,0.0452,0.9052,0.0000,0.0000,0.0000,-0.0347,0.5412,0.2055,49.28019552,-122.98351186,0.00000000,
0.1850,-0.1229,0.0452,0.9052,0.0000,0.0000,0.0000,-0.0347,0.5412,0.2055,49.28019552,-122.98351186,0.00000000,
0.2220,-0.1932,-0.0035,0.9551,0.0000,0.0000,0.0000,-0.0347,0.5412,0.2055,49.28019552,-122.98351186,0.00000000,
0.2410,-0.1932,-0.0035,0.9551,0.0000,0.0000,0.0000,-0.3378,0.7793,0.3191,49.28019552,-122.98351186,0.00000000,
0.2620,-0.1932,-0.0035,0.9551,0.1955,0.2730,-0.0845,-0.3378,0.7793,0.3191,49.28019552,-122.98351186,0.00000000,
0.2790,-0.2661,-0.0313,0.9335,0.1955,0.2730,-0.0845,-0.3378,0.7793,0.3191,49.28019552,-122.98351186,0.00000000,
0.2970,-0.2661,-0.0313,0.9335,0.1955,0.2730,-0.0845,-0.1090,0.4745,0.5397,49.28018662,-122.98352506,0.00000000,
0.3180,-0.2661,-0.0313,0.9335,-0.2208,0.0922,0.3057,-0.1090,0.4745,0.5397,49.28018662,-122.98352506,0.00000000,
0.3560,-0.3593,-0.1351,1.0110,-0.2208,0.0922,0.3057,-0.1090,0.4745,0.5397,49.28018662,-122.98352506,0.00000000,
0.3740,-0.3593,-0.1351,1.0110,-0.2208,0.0922,0.3057,-0.3953,0.4644,0.7979,49.28018662,-122.98352506,0.00000000,
0.3920,-0.3593,-0.1351,1.0110,-0.8552,-0.2189,0.3739,-0.3953,0.4644,0.7979,49.28018662,-122.98352506,0.00000000,
0.4220,-0.3122,-0.0962,0.9848,-0.8552,-0.2189,0.3739,-0.3953,0.4644,0.7979,49.28018662,-122.98352506,0.00000000,
0.4400,-0.3122,-0.0962,0.9848,-0.8552,-0.2189,0.3739,-0.3625,0.5848,1.0595,49.28018662,-122.98352506,0.00000000,
0.4590,-0.3122,-0.0962,0.9848,-0.0174,-0.6622,0.7041,-0.3625,0.5848,1.0595,49.28018662,-122.98352506,0.00000000,
0.4780,-0.2373,-0.1142,0.9557,-0.0174,-0.6622,0.7041,-0.3625,0.5848,1.0595,49.28018662,-122.98352506,0.00000000,
0.4980,-0.2373,-0.1142,0.9557,-0.0174,-0.6622,0.7041,-0.3879,0.7672,0.7052,49.28018662,-122.98352506,0.00000000,
0.5170,-0.2373,-0.1142,0.9557,0.6908,-0.4451,0.3034,-0.3879,0.7672,0.7052,49.28018662,-122.98352506,0.00000000,
0.5550,-0.3502,-0.1079,1.0064,0.6908,-0.4451,0.3034,-0.3879,0.7672,0.7052,49.28018662,-122.98352506,0.00000000,
0.5770,-0.3502,-0.1079,1.0064,0.6908,-0.4451,0.3034,-0.0678,0.1010,0.6347,49.28018662,-122.98352506,0.00000000,
0.5930,-0.3502,-0.1079,1.0064,0.8908,0.1104,0.3569,-0.0678,0.1010,0.6347,49.28018662,-122.98352506,0.00000000,
0.6120,-0.3408,-0.0253,0.8901,0.8908,0.1104,0.3569,-0.0678,0.1010,0.6347,49.28018662,-122.98352506,0.00000000,
0.6310,-0.3408,-0.0253,0.8901,0.8908,0.1104,0.3569,-0.5290,0.5164,0.7062,49.28018662,-122.98352506,0.00000000,
0.6500,-0.3408,-0.0253,0.8901,-0.2467,-0.1390,0.2526,-0.5290,0.5164,0.7062,49.28018662,-122.98352506,0.00000000,
0.6880,-0.5431,0.0953,0.8340,-0.2467,-0.1390,0.2526,-0.5290,0.5164,0.7062,49.28018662,-122.98352506,0.00000000,
0.7070,-0.5431,0.0953,0.8340,-0.2467,-0.1390,0.2526,-0.9005,1.4694,1.2634,49.28018662,-122.98352506,0.00000000,
0.7260,-0.5431,0.0953,0.8340,0.7629,0.9404,0.2738,-0.9005,1.4694,1.2634,49.28018662,-122.98352506,0.00000000,
0.7460,-0.5368,0.2492,0.8490,0.7629,0.9404,0.2738,-0.9005,1.4694,1.2634,49.28018662,-122.98352506,0.00000000,
0.7650,-0.5368,0.2492,0.8490,0.7629,0.9404,0.2738,0.2306,1.9867,2.2542,49.28018662,-122.98352506,0.00000000,
0.7840,-0.5368,0.2492,0.8490,0.3489,1.7629,0.1254,0.2306,1.9867,2.2542,49.28018662,-122.98352506,0.00000000,
0.8210,-0.7040,0.1035,0.6493,0.3489,1.7629,0.1254,0.2306,1.9867,2.2542,49.28018662,-122.98352506,0.00000000,
0.8400,-0.7040,0.1035,0.6493,0.3489,1.7629,0.1254,-0.4019,1.9944,1.9240,49.28018662,-122.98352506,0.00000000,
0.8590,-0.7040,0.1035,0.6493,0.7495,1.0364,-0.3908,-0.4019,1.9944,1.9240,49.28018662,-122.98352506,0.00000000,
0.8780,-0.8283,-0.0761,0.7592,0.7495,1.0364,-0.3908,-0.4019,1.9944,1.9240,49.28018662,-122.98352506,0.00000000,
0.8970,-0.8283,-0.0761,0.7592,0.7495,1.0364,-0.3908,0.2955,2.2309,1.9768,49.28018662,-122.98352506,0.00000000,
0.9170,-0.8283,-0.0761,0.7592,-0.6895,-2.5159,1.7239,0.2955,2.2309,1.9768,49.28018662,-122.98352506,0.00000000,
0.9550,-0.8169,-0.0888,0.7415,-0.6895,-2.5159,1.7239,0.2955,2.2309,1.9768,49.28018662,-122.98352506,0.00000000,
0.9740,-0.8169,-0.0888,0.7415,-0.6895,-2.5159,1.7239,1.0945,1.0805,0.4137,49.28018662,-122.98352506,0.00000000,
0.9930,-0.8169,-0.0888,0.7415,0.4271,-3.0126,2.0784,1.0945,1.0805,0.4137,49.28018662,-122.98352506,0.00000000,
1.0110,-0.8769,-0.0098,0.7224,0.4271,-3.0126,2.0784,1.0945,1.0805,0.4137,49.28018662,-122.98352506,0.00000000,
1.0300,-0.8769,-0.0098,0.7224,0.4271,-3.0126,2.0784,0.2908,1.5219,0.3441,49.28018662,-122.98352506,0.00000000,
1.0500,-0.8769,-0.0098,0.7224,-0.6175,-2.4901,2.0476,0.2908,1.5219,0.3441,49.28018662,-122.98352506,0.00000000,
1.0870,-0.9588,0.1370,0.6275,-0.6175,-2.4901,2.0476,0.2908,1.5219,0.3441,49.28018662,-122.98352506,0.00000000,
1.1070,-0.9588,0.1370,0.6275,-0.6175,-2.4901,2.0476,-0.0232,1.4854,0.6645,49.28018662,-122.98352506,0.00000000,
1.1270,-0.9588,0.1370,0.6275,-0.1824,-2.0778,2.5379,-0.0232,1.4854,0.6645,49.28018662,-122.98352506,0.00000000,
1.1460,-0.9471,0.3366,0.3138,-0.1824,-2.0778,2.5379,-0.0232,1.4854,0.6645,49.28018662,-122.98352506,0.00000000,
1.1640,-0.9471,0.3366,0.3138,-0.1824,-2.0778,2.5379,0.4982,1.5008,0.1628,49.28018662,-122.98352506,0.00000000,
1.1830,-0.9471,0.3366,0.3138,-0.1496,0.1556,1.2405,0.4982,1.5008,0.1628,49.28018662,-122.98352506,0.00000000,
1.2220,-0.9600,0.3491,0.3204,-0.1496,0.1556,1.2405,0.4982,1.5008,0.1628,49.28018662,-122.98352506,0.00000000,
1.2400,-0.9600,0.3491,0.3204,-0.1496,0.1556,1.2405,0.1149,1.6237,-0.1907,49.28018662,-122.98352506,0.00000000,
1.2610,-0.9600,0.3491,0.3204,0.0196,0.6838,0.6837,0.1149,1.6237,-0.1907,49.28018662,-122.98352506,0.00000000,
1.2780,-1.1619,0.4019,0.2510,0.0196,0.6838,0.6837,0.1149,1.6237,-0.1907,49.28018662,-122.98352506,0.00000000,
1.2970,-1.1619,0.4019,0.2510,0.0196,0.6838,0.6837,0.6359,1.0671,-0.8113,49.28016964,-122.98353850,0.00000000,
1.3160,-1.1619,0.4019,0.2510,-0.9933,1.8018,0.9810,0.6359,1.0671,-0.8113,49.28016964,-122.98353850,0.00000000,
1.3540,-0.9286,0.3642,0.0168,-0.9933,1.8018,0.9810,0.6359,1.0671,-0.8113,49.28016964,-122.98353850,0.00000000,
1.3730,-0.9286,0.3642,0.0168,-0.9933,1.8018,0.9810,1.3556,-0.2039,-0.9394,49.28016964,-122.98353850,0.00000000,
1.3910,-0.9286,0.3642,0.0168,-0.2180,2.5596,-0.8168,1.3556,-0.2039,-0.9394,49.28016964,-122.98353850,0.00000000,
1.4210,-0.8225,0.0458,-0.0353,-0.2180,2.5596,-0.8168,1.3556,-0.2039,-0.9394,49.28016964,-122.98353850,0.00000000,
1.4390,-0.8225,0.0458,-0.0353,-0.2180,2.5596,-0.8168,0.8017,0.1665,-0.7241,49.28016964,-122.98353850,0.00000000,
1.4590,-0.8225,0.0458,-0.0353,1.2550,0.2126,-1.3328,0.8017,0.1665,-0.7241,49.28016964,-122.98353850,0.00000000,
1.4780,-0.7922,-0.0172,-0.0027,1.2550,0.2126,-1.3328,0.8017,0.1665,-0.7241,49.28016964,-122.98353850,0.00000000,
1.4960,-0.7922,-0.0172,-0.0027,1.2550,0.2126,-1.3328,-0.1499,-0.1444,0.4862,49.28016964,-122.98353850,0.00000000,
1.5160,-0.7922,-0.0172,-0.0027,1.2422,-3.2797,-2.0256,-0.1499,-0.1444,0.4862,49.28016964,-122.98353850,0.00000000,
1.5550,-0.9879,0.1265,0.2127,1.2422,-3.2797,-2.0256,-0.1499,-0.1444,0.4862,49.28016964,-122.98353850,0.00000000,
1.5750,-0.9879,0.1265,0.2127,1.2422,-3.2797,-2.0256,-0.4485,0.0132,0.7808,49.28016964,-122.98353850,0.00000000,
1.5920,-0.9879,0.1265,0.2127,1.3096,-0.5168,-0.2202,-0.4485,0.0132,0.7808,49.28016964,-122.98353850,0.00000000,
1.6120,-1.0433,0.2061,0.0542,1.3096,-0.5168,-0.2202,-0.4485,0.0132,0.7808,49.28016964,-122.98353850,0.00000000,
1.6300,-1.0433,0.2061,0.0542,1.3096,-0.5168,-0.2202,-0.6239,0.5065,0.7190,49.28016964,-122.98353850,0.00000000,
1.6490,-1.0433,0.2061,0.0542,-1.0299,-1.5904,0.2521,-0.6239,0.5065,0.7190,49.28016964,-122.98353850,0.00000000,
1.6880,-0.8697,0.2805,0.1309,-1.0299,-1.5904,0.2521,-0.6239,0.5065,0.7190,49.28016964,-122.98353850,0.00000000,
1.7060,-0.8697,0.2805,0.1309,-1.0299,-1.5904,0.2521,0.0599,-0.2679,0.4151,49.28016964,-122.98353850,0.00000000,
1.7280,-0.8697,0.2805,0.1309,0.2180,0.3643,-1.3455,0.0599,-0.2679,0.4151,49.28016964,-122.98353850,0.00000000,
1.7460,-1.0266,0.2406,0.1358,0.2180,0.3643,-1.3455,0.0599,-0.2679,0.4151,49.28016964,-122.98353850,0.00000000,
1.7640,-1.0266,0.2406,0.1358,0.2180,0.3643,-1.3455,0.3004,-0.0416,0.1449,49.28016964,-122.98353850,0.00000000,
1.7820,-1.0266,0.2406,0.1358,0.0019,-0.4139,0.6510,0.3004,-0.0416,0.1449,49.28016964,-122.98353850,0.00000000,
1.8220,-0.8380,0.1916,0.0504,0.0019,-0.4139,0.6510,0.3004,-0.0416,0.1449,49.28016964,-122.98353850,0.00000000,
1.8400,-0.8380,0.1916,0.0504,0.0019,-0.4139,0.6510,0.3435,-0.0225,0.4055,49.28016964,-122.98353850,0.00000000,
1.8600,-0.8380,0.1916,0.0504,0.3329,-1.3606,-0.5258,0.3435,-0.0225,0.4055,49.28016964,-122.98353850,0.00000000,
1.8780,-1.0104,0.1471,-0.0481,0.3329,-1.3606,-0.5258,0.3435,-0.0225,0.4055,49.28016964,-122.98353850,0.00000000,
1.8970,-1.0104,0.1471,-0.0481,0.3329,-1.3606,-0.5258,0.1671,0.8595,1.5560,49.28016964,-122.98353850,0.00000000,
1.9160,-1.0104,0.1471,-0.0481,-0.6689,-3.3924,0.0159,0.1671,0.8595,1.5560,49.28016964,-122.98353850,0.00000000,
1.9550,-0.6999,0.4242,-0.1830,-0.6689,-3.3924,0.0159,0.1671,0.8595,1.5560,49.28016964,-122.98353850,0.00000000,
1.9740,-0.6999,0.4242,-0.1830,-0.6689,-3.3924,0.0159,-0.0527,-0.1805,1.0290,49.28016964,-122.98353850,0.00000000,
1.9940,-0.6999,0.4242,-0.1830,0.5376,-0.5545,-3.3315,-0.0527,-0.1805,1.0290,49.28016964,-122.98353850,0.00000000,
2.0120,-0.7394,0.5952,0.0177,0.5376,-0.5545,-3.3315,-0.0527,-0.1805,1.0290,49.28016964,-122.98353850,0.00000000,
2.0300,-0.7394,0.5952,0.0177,0.5376,-0.5545,-3.3315,0.2198,-0.2897,1.5199,49.28016964,-122.98353850,0.00000000,
2.0510,-0.7394,0.5952,0.0177,0.3242,-1.1267,-0.2372,0.2198,-0.2897,1.5199,49.28016964,-122.98353850,0.00000000,
2.0870,-0.7536,1.0688,0.0429,0.3242,-1.1267,-0.2372,0.2198,-0.2897,1.5199,49.28016964,-122.98353850,0.00000000,
2.1070,-0.7536,1.0688,0.0429,0.3242,-1.1267,-0.2372,0.0266,-0.4460,0.3005,49.28016964,-122.98353850,0.00000000,
2.1270,-0.7536,1.0688,0.0429,2.1514,4.9844,-2.1908,0.0266,-0.4460,0.3005,49.28016964,-122.98353850,0.00000000,
2.1460,-0.8940,0.4291,-0.0286,2.1514,4.9844,-2.1908,0.0266,-0.4460,0.3005,49.28016964,-122.98353850,0.00000000,
2.1640,-0.8940,0.4291,-0.0286,2.1514,4.9844,-2.1908,-0.7585,0.5110,1.1110,49.28016964,-122.98353850,0.00000000,
2.1820,-0.8940,0.4291,-0.0286,-2.0677,-1.1185,-0.5924,-0.7585,0.5110,1.1110,49.28016964,-122.98353850,0.00000000,
2.2200,-0.7347,0.7172,0.0947,-2.0677,-1.1185,-0.5924,-0.7585,0.5110,1.1110,49.28016964,-122.98353850,0.00000000,
2.2420,-0.7347,0.7172,0.0947,-2.0677,-1.1185,-0.5924,-0.5068,-0.5177,1.5375,49.28016964,-122.98353850,0.00000000,
2.2600,-0.7347,0.7172,0.0947,-0.8087,-1.0134,-1.6952,-0.5068,-0.5177,1.5375,49.28016964,-122.98353850,0.00000000,
2.2780,-0.5393,0.9057,0.1594,-0.8087,-1.0134,-1.6952,-0.5068,-0.5177,1.5375,49.28016964,-122.98353850,0.00000000,
2.2970,-0.5393,0.9057,0.1594,-0.8087,-1.0134,-1.6952,0.3905,0.0804,0.4966,49.28016964,-122.98353850,0.00000000,
2.3170,-0.5393,0.9057,0.1594,-0.2034,0.7746,1.4306,0.3905,0.0804,0.4966,49.28016964,-122.98353850,0.00000000,
2.3550,-0.6273,0.7529,-0.0459,-0.2034,0.7746,1.4306,0.3905,0.0804,0.4966,49.28016964,-122.98353850,0.00000000,
2.3740,-0.6273,0.7529,-0.0459,-0.2034,0.7746,1.4306,-0.3539,-0.2723,0.0121,49.28016964,-122.98353850,0.00000000,
2.3930,-0.6273,0.7529,-0.0459,1.7204,1.2359,-2.3155,-0.3539,-0.2723,0.0121,49.28016964,-122.98353850,0.00000000,
2.4100,-0.4280,0.6277,0.1690,1.7204,1.2359,-2.3155,-0.3539,-0.2723,0.0121,49.28016964,-122.98353850,0.00000000,
2.4300,-0.4280,0.6277,0.1690,1.7204,1.2359,-2.3155,-0.4436,1.0021,-0.3146,49.28016964,-122.98353850,0.00000000,
2.4500,-0.4280,0.6277,0.1690,1.5672,0.3443,0.4296,-0.4436,1.0021,-0.3146,49.28016964,-122.98353850,0.00000000,
2.4870,-0.9096,0.8504,0.1444,1.5672,0.3443,0.4296,-0.4436,1.0021,-0.3146,49.28016964,-122.98353850,0.00000000,
2.5060,-0.9096,0.8504,0.1444,1.5672,0.3443,0.4296,-0.2049,0.1735,-0.1062,49.28016964,-122.98353850,0.00000000,
2.5260,-0.9096,0.8504,0.1444,1.1731,-0.1323,-1.1001,-0.2049,0.1735,-0.1062,49.28016964,-122.98353850,0.00000000,
2.5460,-0.7014,0.6293,-0.0678,1.1731,-0.1323,-1.1001,-0.2049,0.1735,-0.1062,49.28016964,-122.98353850,0.00000000,
2.5630,-0.7014,0.6293,-0.0678,1.1731,-0.1323,-1.1001,0.0133,-0.8053,0.4858,49.28016964,-122.98353850,0.00000000,
2.5840,-0.7014,0.6293,-0.0678,-2.5954,-0.1282,0.0131,0.0133,-0.8053,0.4858,49.28016964,-122.98353850,0.00000000,
2.6200,-0.6864,0.8056,0.3408,-2.5954,-0.1282,0.0131,0.0133,-0.8053,0.4858,49.28016964,-122.98353850,0.00000000,
2.6390,-0.6864,0.8056,0.3408,-2.5954,-0.1282,0.0131,0.7186,-0.8723,0.7747,49.28016964,-122.98353850,0.00000000,
2.6590,-0.6864,0.8056,0.3408,-0.8902,-0.0621,0.0431,0.7186,-0.8723,0.7747,49.28016964,-122.98353850,0.00000000,
2.6770,-0.6572,0.9091,0.0809,-0.8902,-0.0621,0.0431,0.7186,-0.8723,0.7747,49.28016964,-122.98353850,0.00000000,
2.6970,-0.6572,0.9091,0.0809,-0.8902,-0.0621,0.0431,1.3473,-1.7248,0.7307,49.28016964,-122.98353850,0.00000000,
2.7180,-0.6572,0.9091,0.0809,-0.6248,0.6196,0.2194,1.3473,-1.7248,0.7307,49.28016964,-122.98353850,0.00000000,
2.7530,-0.4063,0.7974,0.0050,-0.6248,0.6196,0.2194,1.3473,-1.7248,0.7307,49.28016964,-122.98353850,0.00000000,
2.7720,-0.4063,0.7974,0.0050,-0.6248,0.6196,0.2194,0.0856,-0.2695,0.1839,49.28016964,-122.98353850,0.00000000,
2.7910,-0.4063,0.7974,0.0050,-0.0357,0.5665,-1.8298,0.0856,-0.2695,0.1839,49.28016964,-122.98353850,0.00000000,
2.8100,-0.5950,0.6290,0.2539,-0.0357,0.5665,-1.8298,0.0856,-0.2695,0.1839,49.28016964,-122.98353850,0.00000000,
2.8300,-0.5950,0.6290,0.2539,-0.0357,0.5665,-1.8298,0.3882,-0.3055,0.0884,49.28016964,-122.98353850,0.00000000,
2.8500,-0.5950,0.6290,0.2539,1.0152,-1.2934,0.3587,0.3882,-0.3055,0.0884,49.28016964,-122.98353850,0.00000000,
2.8870,-0.6507,0.8199,-0.0158,1.0152,-1.2934,0.3587,0.3882,-0.3055,0.0884,49.28016964,-122.98353850,0.00000000,
2.9070,-0.6507,0.8199,-0.0158,1.0152,-1.2934,0.3587,0.4250,-0.7182,0.6801,49.28016964,-122.98353850,0.00000000,
2.9270,-0.6507,0.8199,-0.0158,-1.8944,-1.7468,-0.7220,0.4250,-0.7182,0.6801,49.28016964,-122.98353850,0.00000000,
2.9440,-0.2637,1.0792,0.0854,-1.8944,-1.7468,-0.7220,0.4250,-0.7182,0.6801,49.28016964,-122.98353850,0.00000000,
2.9620,-0.2637,1.0792,0.0854,-1.8944,-1.7468,-0.7220,-0.1809,-0.0384,0.4158,49.28016964,-122.98353850,0.00000000,
2.9820,-0.2637,1.0792,0.0854,0.3971,1.8147,-1.6704,-0.1809,-0.0384,0.4158,49.28016964,-122.98353850,0.00000000,
3.0190,-0.4926,0.9685,0.0901,0.3971,1.8147,-1.6704,-0.1809,-0.0384,0.4158,49.28016964,-122.98353850,0.00000000,
3.0390,-0.4926,0.9685,0.0901,0.3971,1.8147,-1.6704,-0.4214,0.5217,0.1748,49.28016964,-122.98353850,0.00000000,
3.0590,-0.4926,0.9685,0.0901,1.4849,1.6318,-0.4221,-0.4214,0.5217,0.1748,49.28016964,-122.98353850,0.00000000,
3.0770,-0.4043,0.8681,0.2652,1.4849,1.6318,-0.4221,-0.4214,0.5217,0.1748,49.28016964,-122.98353850,0.00000000,
3.0960,-0.4043,0.8681,0.2652,1.4849,1.6318,-0.4221,-0.1034,0.2190,0.3141,49.28016964,-122.98353850,0.00000000,
3.1150,-0.4043,0.8681,0.2652,-0.3180,-0.2249,-0.2669,-0.1034,0.2190,0.3141,49.28016964,-122.98353850,0.00000000,
3.1530,-0.4637,1.1902,0.1780,-0.3180,-0.2249,-0.2669,-0.1034,0.2190,0.3141,49.28016964,-122.98353850,0.00000000,
3.1710,-0.4637,1.1902,0.1780,-0.3180,-0.2249,-0.2669,0.2514,0.3819,0.3750,49.28016964,-122.98353850,0.00000000,
3.1910,-0.4637,1.1902,0.1780,0.3024,1.9358,0.8777,0.2514,0.3819,0.3750,49.28016964,-122.98353850,0.00000000,
3.2100,-0.2723,0.9921,0.0192,0.3024,1.9358,0.8777,0.2514,0.3819,0.3750,49.28016964,-122.98353850,0.00000000,
3.2290,-0.2723,0.9921,0.0192,0.3024,1.9358,0.8777,-0.2801,0.8915,-0.3310,49.28016964,-122.98353850,0.00000000,
3.2480,-0.2723,0.9921,0.0192,0.8657,2.1484,0.3609,-0.2801,0.8915,-0.3310,49.28016964,-122.98353850,0.00000000,
3.2850,-0.5783,0.4320,0.1812,0.8657,2.1484,0.3609,-0.2801,0.8915,-0.3310,49.28016964,-122.98353850,0.00000000,
3.3060,-0.5783,0.4320,0.1812,0.8657,2.1484,0.3609,0.2151,0.4394,-0.3020,49.28015619,-122.98354231,0.00000000,
3.3270,-0.5783,0.4320,0.1812,0.2019,-1.8074,0.2935,0.2151,0.4394,-0.3020,49.28015619,-122.98354231,0.00000000,
3.3450,-0.5088,0.5748,-0.1371,0.2019,-1.8074,0.2935,0.2151,0.4394,-0.3020,49.28015619,-122.98354231,0.00000000,
3.3630,-0.5088,0.5748,-0.1371,0.2019,-1.8074,0.2935,-0.7539,0.4977,0.4380,49.28015619,-122.98354231,0.00000000,
3.3830,-0.5088,0.5748,-0.1371,-0.9167,-5.4466,-1.9929,-0.7539,0.4977,0.4380,49.28015619,-122.98354231,0.00000000,
3.4110,-0.3763,1.0175,0.3876,-0.9167,-5.4466,-1.9929,-0.7539,0.4977,0.4380,49.28015619,-122.98354231,0.00000000,
3.4300,-0.3763,1.0175,0.3876,-0.9167,-5.4466,-1.9929,-0.3947,-0.3044,0.3380,49.28015619,-122.98354231,0.00000000,
3.4490,-0.3763,1.0175,0.3876,-0.4164,0.5613,-0.8207,-0.3947,-0.3044,0.3380,49.28015619,-122.98354231,0.00000000,
3.4880,-0.3927,1.1615,0.0404,-0.4164,0.5613,-0.8207,-0.3947,-0.3044,0.3380,49.28015619,-122.98354231,0.00000000,
3.5070,-0.3927,1.1615,0.0404,-0.4164,0.5613,-0.8207,0.1205,-0.1007,-0.2221,49.28015619,-122.98354231,0.00000000,
3.5260,-0.3927,1.1615,0.0404,2.9494,1.9238,0.8009,0.1205,-0.1007,-0.2221,49.28015619,-122.98354231,0.00000000,
3.5450,-0.4438,0.8773,0.1754,2.9494,1.9238,0.8009,0.1205,-0.1007,-0.2221,49.28015619,-122.98354231,0.00000000,
3.5640,-0.4438,0.8773,0.1754,2.9494,1.9238,0.8009,0.1372,-0.1161,0.3132,49.28015619,-122.98354231,0.00000000,
3.5830,-0.4438,0.8773,0.1754,-1.9202,1.7069,-0.0498,0.1372,-0.1161,0.3132,49.28015619,-122.98354231,0.00000000,
3.6190,-0.3873,1.0976,0.1617,-1.9202,1.7069,-0.0498,0.1372,-0.1161,0.3132,49.28015619,-122.98354231,0.00000000,
3.6400,-0.3873,1.0976,0.1617,-1.9202,1.7069,-0.0498,0.3067,-0.4837,0.1066,49.28015619,-122.98354231,0.00000000,
3.6590,-0.3873,1.0976,0.1617,1.3509,0.4669,-0.2573,0.3067,-0.4837,0.1066,49.28015619,-122.98354231,0.00000000,
3.6770,-0.4849,1.2281,0.0843,1.3509,0.4669,-0.2573,0.3067,-0.4837,0.1066,49.28015619,-122.98354231,0.00000000,
3.6950,-0.4849,1.2281,0.0843,1.3509,0.4669,-0.2573,0.9207,0.3138,0.6073,49.28015619,-122.98354231,0.00000000,
3.7150,-0.4849,1.2281,0.0843,-2.0709,4.1491,2.3817,0.9207,0.3138,0.6073,49.28015619,-122.98354231,0.00000000,
3.7520,-0.2394,0.7455,0.0359,-2.0709,4.1491,2.3817,0.9207,0.3138,0.6073,49.28015619,-122.98354231,0.00000000,
3.7720,-0.2394,0.7455,0.0359,-2.0709,4.1491,2.3817,-0.9604,1.4013,0.3174,49.28015619,-122.98354231,0.00000000,
3.7910,-0.2394,0.7455,0.0359,2.6174,-0.6979,-4.1443,-0.9604,1.4013,0.3174,49.28015619,-122.98354231,0.00000000,
3.8090,-0.2856,0.3616,0.0127,2.6174,-0.6979,-4.1443,-0.9604,1.4013,0.3174,49.28015619,-122.98354231,0.00000000,
3.8300,-0.2856,0.3616,0.0127,2.6174,-0.6979,-4.1443,-0.0804,-0.0901,-0.4706,49.28015619,-122.98354231,0.00000000,
3.8480,-0.2856,0.3616,0.0127,-1.2198,-4.3354,1.3340,-0.0804,-0.0901,-0.4706,49.28015619,-122.98354231,0.00000000,
3.8860,-0.5997,1.1626,0.1352,-1.2198,-4.3354,1.3340,-0.0804,-0.0901,-0.4706,49.28015619,-122.98354231,0.00000000,
3.9050,-0.5997,1.1626,0.1352,-1.2198,-4.3354,1.3340,-0.4112,-0.3496,-0.3701,49.28015619,-122.98354231,0.00000000,
3.9240,-0.5997,1.1626,0.1352,1.6597,-0.7554,-1.8388,-0.4112,-0.3496,-0.3701,49.28015619,-122.98354231,0.00000000,
3.9420,-0.4862,0.9292,0.2947,1.6597,-0.7554,-1.8388,-0.4112,-0.3496,-0.3701,49.28015619,-122.98354231,0.00000000,
3.9630,-0.4862,0.9292,0.2947,1.6597,-0.7554,-1.8388,0.6285,-0.6592,0.0664,49.28015619,-122.98354231,0.00000000,
3.9810,-0.4862,0.9292,0.2947,-1.7463,2.0573,1.6984,0.6285,-0.6592,0.0664,49.28015619,-122.98354231,0.00000000,
4.0190,-0.4520,1.0355,0.0471,-1.7463,2.0573,1.6984,0.6285,-0.6592,0.0664,49.28015619,-122.98354231,0.00000000,
4.0380,-0.4520,1.0355,0.0471,-1.7463,2.0573,1.6984,0.8875,-0.5898,0.1388,49.28015619,-122.98354231,0.00000000,
4.0570,-0.4520,1.0355,0.0471,-0.1377,0.1545,0.1530,0.8875,-0.5898,0.1388,49.28015619,-122.98354231,0.00000000,
4.0760,-0.3136,1.1242,0.1250,-0.1377,0.1545,0.1530,0.8875,-0.5898,0.1388,49.28015619,-122.98354231,0.00000000,
4.0970,-0.3136,1.1242,0.1250,-0.1377,0.1545,0.1530,1.5757,-1.2198,-0.3553,49.28015619,-122.98354231,0.00000000,
4.1150,-0.3136,1.1242,0.1250,-0.1647,2.3163,1.7892,1.5757,-1.2198,-0.3553,49.28015619,-122.98354231,0.00000000,
4.1510,-0.3924,0.8179,-0.1734,-0.1647,2.3163,1.7892,1.5757,-1.2198,-0.3553,49.28015619,-122.98354231,0.00000000,
4.1720,-0.3924,0.8179,-0.1734,-0.1647,2.3163,1.7892,0.6957,0.0113,-0.2917,49.28015619,-122.98354231,0.00000000,
4.1900,-0.3924,0.8179,-0.1734,1.0567,0.7494,-1.3244,0.6957,0.0113,-0.2917,49.28015619,-122.98354231,0.00000000,
4.2090,-0.4757,0.4926,-0.0357,1.0567,0.7494,-1.3244,0.6957,0.0113,-0.2917,49.28015619,-122.98354231,0.00000000,
4.2280,-0.4757,0.4926,-0.0357,1.0567,0.7494,-1.3244,0.8563,-0.4425,-0.2273,49.28015619,-122.98354231,0.00000000,
4.2480,-0.4757,0.4926,-0.0357,0.1622,-2.8754,0.4544,0.8563,-0.4425,-0.2273,49.28015619,-122.98354231,0.00000000,
4.2860,-0.6102,0.8364,-0.0015,0.1622,-2.8754,0.4544,0.8563,-0.4425,-0.2273,49.28015619,-122.98354231,0.00000000,
4.3060,-0.6102,0.8364,-0.0015,0.1622,-2.8754,0.4544,1.4848,-1.0053,-0.4499,49.28014851,-122.98356173,0.00000000,
4.3280,-0.6102,0.8364,-0.0015,-0.5497,-2.2801,0.7172,1.4848,-1.0053,-0.4499,49.28014851,-122.98356173,0.00000000,
4.3440,-0.3900,0.7720,-0.4153,-0.5497,-2.2801,0.7172,1.4848,-1.0053,-0.4499,49.28014851,-122.98356173,0.00000000,
4.3620,-0.3900,0.7720,-0.4153,-0.5497,-2.2801,0.7172,0.4296,-0.7537,0.0113,49.28014851,-122.98356173,0.00000000,
4.3820,-0.3900,0.7720,-0.4153,-1.5662,0.0408,-1.7707,0.4296,-0.7537,0.0113,49.28014851,-122.98356173,0.00000000,
4.4100,-0.2091,0.8205,-0.1188,-1.5662,0.0408,-1.7707,0.4296,-0.7537,0.0113,49.28014851,-122.98356173,0.00000000,
4.4310,-0.2091,0.8205,-0.1188,-1.5662,0.0408,-1.7707,-0.2007,-0.7294,0.9272,49.28014851,-122.98356173,0.00000000,
4.4490,-0.2091,0.8205,-0.1188,3.6700,-1.7819,-1.7169,-0.2007,-0.7294,0.9272,49.28014851,-122.98356173,0.00000000,
4.4860,-0.4927,1.1278,-0.0961,3.6700,-1.7819,-1.7169,-0.2007,-0.7294,0.9272,49.28014851,-122.98356173,0.00000000,
4.5050,-0.4927,1.1278,-0.0961,3.6700,-1.7819,-1.7169,-0.1487,-0.5899,0.3436,49.28014851,-122.98356173,0.00000000,
4.5240,-0.4927,1.1278,-0.0961,-1.3985,1.7661,-0.4688,-0.1487,-0.5899,0.3436,49.28014851,-122.98356173,0.00000000,
4.5430,-0.3950,0.9812,-0.0542,-1.3985,1.7661,-0.4688,-0.1487,-0.5899,0.3436,49.28014851,-122.98356173,0.00000000,
4.5620,-0.3950,0.9812,-0.0542,-1.3985,1.7661,-0.4688,-0.1743,-0.3931,0.3439,49.28014851,-122.98356173,0.00000000,
4.5810,-0.3950,0.9812,-0.0542,0.4226,1.3070,-0.0787,-0.1743,-0.3931,0.3439,49.28014851,-122.98356173,0.00000000,
4.6190,-0.3574,0.9433,-0.0925,0.4226,1.3070,-0.0787,-0.1743,-0.3931,0.3439,49.28014851,-122.98356173,0.00000000,
4.6380,-0.3574,0.9433,-0.0925,0.4226,1.3070,-0.0787,-0.3368,-0.6343,0.4872,49.28014851,-122.98356173,0.00000000,
4.6580,-0.3574,0.9433,-0.0925,-0.3209,-0.4061,-1.3971,-0.3368,-0.6343,0.4872,49.28014851,-122.98356173,0.00000000,
4.6770,-0.2464,1.0754,0.0038,-0.3209,-0.4061,-1.3971,-0.3368,-0.6343,0.4872,49.28014851,-122.98356173,0.00000000,
4.6960,-0.2464,1.0754,0.0038,-0.3209,-0.4061,-1.3971,-0.2148,0.1125,0.1347,49.28014851,-122.98356173,0.00000000,
4.7150,-0.2464,1.0754,0.0038,0.9062,1.7796,-0.2437,-0.2148,0.1125,0.1347,49.28014851,-122.98356173,0.00000000,
4.7530,-0.3210,0.8936,-0.0733,0.9062,1.7796,-0.2437,-0.2148,0.1125,0.1347,49.28014851,-122.98356173,0.00000000,
4.7710,-0.3210,0.8936,-0.0733,0.9062,1.7796,-0.2437,-0.1298,0.1623,0.1252,49.28014851,-122.98356173,0.00000000,
4.7900,-0.3210,0.8936,-0.0733,1.0748,-0.9470,-0.7439,-0.1298,0.1623,0.1252,49.28014851,-122.98356173,0.00000000,
4.8100,-0.3533,0.9301,-0.0237,1.0748,-0.9470,-0.7439,-0.1298,0.1623,0.1252,49.28014851,-122.98356173,0.00000000,
4.8280,-0.3533,0.9301,-0.0237,1.0748,-0.9470,-0.7439,0.0430,0.2368,0.2570,49.28014851,-122.98356173,0.00000000,
4.8490,-0.3533,0.9301,-0.0237,-1.2520,0.7412,-0.4120,0.0430,0.2368,0.2570,49.28014851,-122.98356173,0.00000000,
4.8850,-0.3278,1.2553,0.0011,-1.2520,0.7412,-0.4120,0.0430,0.2368,0.2570,49.28014851,-122.98356173,0.00000000,
4.9050,-0.3278,1.2553,0.0011,-1.2520,0.7412,-0.4120,-0.0719,0.2656,0.1256,49.28014851,-122.98356173,0.00000000,
4.9230,-0.3278,1.2553,0.0011,-0.0461,1.8145,-0.2570,-0.0719,0.2656,0.1256,49.28014851,-122.98356173,0.00000000,
4.9420,-0.5075,0.9379,0.1550,-0.0461,1.8145,-0.2570,-0.0719,0.2656,0.1256,49.28014851,-122.98356173,0.00000000,
4.9620,-0.5075,0.9379,0.1550,-0.0461,1.8145,-0.2570,0.4847,0.0956,0.7069,49.28014851,-122.98356173,0.00000000,
4.9810,-0.5075,0.9379,0.1550,0.2881,1.2654,0.8394,0.4847,0.0956,0.7069,49.28014851,-122.98356173,0.00000000,
5.0190,0.0072,0.8090,-0.1994,0.2881,1.2654,0.8394,0.4847,0.0956,0.7069,49.28014851,-122.98356173,0.00000000,
5.0380,0.0072,0.8090,-0.1994,0.2881,1.2654,0.8394,0.3290,-0.2461,-0.2336,49.28014851,-122.98356173,0.00000000,
5.0560,0.0072,0.8090,-0.1994,0.3003,-1.8362,-0.3348,0.3290,-0.2461,-0.2336,49.28014851,-122.98356173,0.00000000,
5.0770,-0.4299,0.9052,-0.0598,0.3003,-1.8362,-0.3348,0.3290,-0.2461,-0.2336,49.28014851,-122.98356173,0.00000000,
5.0950,-0.4299,0.9052,-0.0598,0.3003,-1.8362,-0.3348,0.3352,-0.0552,-0.4450,49.28014851,-122.98356173,0.00000000,
5.1130,-0.4299,0.9052,-0.0598,1.8852,-0.5508,0.0094,0.3352,-0.0552,-0.4450,49.28014851,-122.98356173,0.00000000,
5.1520,-0.5218,0.9222,-0.1146,1.8852,-0.5508,0.0094,0.3352,-0.0552,-0.4450,49.28014851,-122.98356173,0.00000000,
5.1700,-0.5218,0.9222,-0.1146,1.8852,-0.5508,0.0094,0.4003,0.1717,1.1604,49.28014851,-122.98356173,0.00000000,
5.1910,-0.5218,0.9222,-0.1146,-4.1589,-0.8202,0.4878,0.4003,0.1717,1.1604,49.28014851,-122.98356173,0.00000000,
5.2090,-0.1808,0.8844,-0.3397,-4.1589,-0.8202,0.4878,0.4003,0.1717,1.1604,49.28014851,-122.98356173,0.00000000,
5.2290,-0.1808,0.8844,-0.3397,-4.1589,-0.8202,0.4878,-0.7281,-0.1747,1.9978,49.28014851,-122.98356173,0.00000000,
5.2480,-0.1808,0.8844,-0.3397,-2.4783,-0.4229,-2.7428,-0.7281,-0.1747,1.9978,49.28014851,-122.98356173,0.00000000,
5.2850,0.1406,1.0031,0.1724,-2.4783,-0.4229,-2.7428,-0.7281,-0.1747,1.9978,49.28014851,-122.98356173,0.00000000,
5.3040,0.1406,1.0031,0.1724,-2.4783,-0.4229,-2.7428,-0.0624,0.1626,1.8493,49.28014851,-122.98356173,0.00000000,
5.3240,0.1406,1.0031,0.1724,-0.1009,-1.0628,0.4299,-0.0624,0.1626,1.8493,49.28014851,-122.98356173,0.00000000,
5.3410,0.2122,1.0907,-0.1238,-0.1009,-1.0628,0.4299,-0.0624,0.1626,1.8493,49.28014851,-122.98356173,0.00000000,
5.3600,0.2122,1.0907,-0.1238,-0.1009,-1.0628,0.4299,-0.3206,-0.1213,0.5038,49.28014851,-122.98356173,0.00000000,
5.3790,0.2122,1.0907,-0.1238,1.8847,0.9633,-0.5666,-0.3206,-0.1213,0.5038,49.28014851,-122.98356173,0.00000000,
5.4080,0.0494,0.9514,0.0536,1.8847,0.9633,-0.5666,-0.3206,-0.1213,0.5038,49.28014851,-122.98356173,0.00000000,
5.4270,0.0494,0.9514,0.0536,1.8847,0.9633,-0.5666,0.1100,0.2476,0.2394,49.28014851,-122.98356173,0.00000000,
5.4460,0.0494,0.9514,0.0536,0.2995,-0.2420,1.1282,0.1100,0.2476,0.2394,49.28014851,-122.98356173,0.00000000,
5.4850,0.2276,1.3250,-0.0424,0.2995,-0.2420,1.1282,0.1100,0.2476,0.2394,49.28014851,-122.98356173,0.00000000,
5.5030,0.2276,1.3250,-0.0424,0.2995,-0.2420,1.1282,0.0048,-0.2486,-0.5841,49.28014851,-122.98356173,0.00000000,
5.5230,0.2276,1.3250,-0.0424,1.5093,2.0132,-0.6312,0.0048,-0.2486,-0.5841,49.28014851,-122.98356173,0.00000000,
5.5420,-0.1533,0.8572,-0.0549,1.5093,2.0132,-0.6312,0.0048,-0.2486,-0.5841,49.28014851,-122.98356173,0.00000000,
5.5610,-0.1533,0.8572,-0.0549,1.5093,2.0132,-0.6312,0.1020,-0.3683,-0.8042,49.28014851,-122.98356173,0.00000000,
5.5790,-0.1533,0.8572,-0.0549,1.9075,1.2476,-0.1430,0.1020,-0.3683,-0.8042,49.28014851,-122.98356173,0.00000000,
5.6170,-0.0019,0.9877,-0.0368,1.9075,1.2476,-0.1430,0.1020,-0.3683,-0.8042,49.28014851,-122.98356173,0.00000000,
5.6360,-0.0019,0.9877,-0.0368,1.9075,1.2476,-0.1430,0.0453,0.0204,-0.0734,49.28014851,-122.98356173,0.00000000,
5.6560,-0.0019,0.9877,-0.0368,-1.2765,-2.0036,-0.0250,0.0453,0.0204,-0.0734,49.28014851,-122.98356173,0.00000000,
5.6750,-0.0326,0.9860,-0.0947,-1.2765,-2.0036,-0.0250,0.0453,0.0204,-0.0734,49.28014851,-122.98356173,0.00000000,
5.6950,-0.0326,0.9860,-0.0947,-1.2765,-2.0036,-0.0250,0.1268,0.0021,0.1179,49.28014851,-122.98356173,0.00000000,
5.7120,-0.0326,0.9860,-0.0947,-0.1282,0.4143,0.2277,0.1268,0.0021,0.1179,49.28014851,-122.98356173,0.00000000,
5.7520,0.0629,0.9218,-0.1664,-0.1282,0.4143,0.2277,0.1268,0.0021,0.1179,49.28014851,-122.98356173,0.00000000,
5.7700,0.0629,0.9218,-0.1664,-0.1282,0.4143,0.2277,0.0435,-0.2353,-0.0416,49.28014851,-122.98356173,0.00000000,
5.7890,0.0629,0.9218,-0.1664,0.5302,-0.7490,-0.8093,0.0435,-0.2353,-0.0416,49.28014851,-122.98356173,0.00000000,
5.8080,0.1019,1.0165,0.0273,0.5302,-0.7490,-0.8093,0.0435,-0.2353,-0.0416,49.28014851,-122.98356173,0.00000000,
5.8280,0.1019,1.0165,0.0273,0.5302,-0.7490,-0.8093,0.3645,0.1642,-0.8291,49.28014851,-122.98356173,0.00000000,
5.8470,0.1019,1.0165,0.0273,2.3897,0.5241,-0.1621,0.3645,0.1642,-0.8291,49.28014851,-122.98356173,0.00000000,
5.8850,-0.1625,0.9693,-0.2084,2.3897,0.5241,-0.1621,0.3645,0.1642,-0.8291,49.28014851,-122.98356173,0.00000000,
5.9050,-0.1625,0.9693,-0.2084,2.3897,0.5241,-0.1621,0.1510,0.1363,-1.0759,49.28014851,-122.98356173,0.00000000,
5.9230,-0.1625,0.9693,-0.2084,1.6284,-0.7485,-0.4255,0.1510,0.1363,-1.0759,49.28014851,-122.98356173,0.00000000,
5.9420,-0.3036,1.1677,-0.0909,1.6284,-0.7485,-0.4255,0.1510,0.1363,-1.0759,49.28014851,-122.98356173,0.00000000,
5.9620,-0.3036,1.1677,-0.0909,1.6284,-0.7485,-0.4255,-0.2145,0.0918,0.4040,49.28014851,-122.98356173,0.00000000,
5.9800,-0.3036,1.1677,-0.0909,-1.9508,1.6498,-0.5010,-0.2145,0.0918,0.4040,49.28014851,-122.98356173,0.00000000,
6.0180,-0.0771,1.0713,-0.0149,-1.9508,1.6498,-0.5010,-0.2145,0.0918,0.4040,49.28014851,-122.98356173,0.00000000,
6.0360,-0.0771,1.0713,-0.0149,-1.9508,1.6498,-0.5010,-0.2937,-0.0440,0.4266,49.28014851,-122.98356173,0.00000000,
6.0570,-0.0771,1.0713,-0.0149,-0.3420,0.8036,-0.2179,-0.2937,-0.0440,0.4266,49.28014851,-122.98356173,0.00000000,
6.0760,0.0736,0.8968,0.0463,-0.3420,0.8036,-0.2179,-0.2937,-0.0440,0.4266,49.28014851,-122.98356173,0.00000000,
6.0940,0.0736,0.8968,0.0463,-0.3420,0.8036,-0.2179,-0.0462,0.4213,-0.5132,49.28014851,-122.98356173,0.00000000,
6.1140,0.0736,0.8968,0.0463,1.8137,-0.7484,0.7906,-0.0462,0.4213,-0.5132,49.28014851,-122.98356173,0.00000000,
6.1520,-0.2345,1.0450,-0.0676,1.8137,-0.7484,0.7906,-0.0462,0.4213,-0.5132,49.28014851,-122.98356173,0.00000000,
6.1710,-0.2345,1.0450,-0.0676,1.8137,-0.7484,0.7906,0.0275,0.3808,-0.3692,49.28014851,-122.98356173,0.00000000,
6.1890,-0.2345,1.0450,-0.0676,0.1864,0.1211,0.5256,0.0275,0.3808,-0.3692,49.28014851,-122.98356173,0.00000000,
6.2090,-0.1282,0.9709,-0.0350,0.1864,0.1211,0.5256,0.0275,0.3808,-0.3692,49.28014851,-122.98356173,0.00000000,
6.2280,-0.1282,0.9709,-0.0350,0.1864,0.1211,0.5256,-0.0506,0.1255,-0.4867,49.28014851,-122.98356173,0.00000000,
6.2470,-0.1282,0.9709,-0.0350,-0.4511,0.2450,-0.6002,-0.0506,0.1255,-0.4867,49.28014851,-122.98356173,0.00000000,
6.2850,-0.2658,1.1746,-0.1221,-0.4511,0.2450,-0.6002,-0.0506,0.1255,-0.4867,49.28014851,-122.98356173,0.00000000,
6.3020,-0.2658,1.1746,-0.1221,-0.4511,0.2450,-0.6002,0.1283,0.1722,0.4649,49.28015287,-122.98357793,0.00000000,
6.3220,-0.2658,1.1746,-0.1221,-0.9926,1.2132,1.0240,0.1283,0.1722,0.4649,49.28015287,-122.98357793,0.00000000,
6.3410,-0.0805,0.6526,0.0226,-0.9926,1.2132,1.0240,0.1283,0.1722,0.4649,49.28015287,-122.98357793,0.00000000,
6.3600,-0.0805,0.6526,0.0226,-0.9926,1.2132,1.0240,-0.0034,0.6014,-0.1727,49.28015287,-122.98357793,0.00000000,
6.3800,-0.0805,0.6526,0.0226,2.5119,-1.2123,-0.5568,-0.0034,0.6014,-0.1727,49.28015287,-122.98357793,0.00000000,
6.4070,-0.2517,1.0143,-0.0373,2.5119,-1.2123,-0.5568,-0.0034,0.6014,-0.1727,49.28015287,-122.98357793,0.00000000,
6.4270,-0.2517,1.0143,-0.0373,2.5119,-1.2123,-0.5568,0.6374,-0.2856,-0.3254,49.28015287,-122.98357793,0.00000000,
6.4470,-0.2517,1.0143,-0.0373,-0.3792,-1.9816,1.7387,0.6374,-0.2856,-0.3254,49.28015287,-122.98357793,0.00000000,
6.4850,-0.0960,1.0188,-0.0947,-0.3792,-1.9816,1.7387,0.6374,-0.2856,-0.3254,49.28015287,-122.98357793,0.00000000,
6.5030,-0.0960,1.0188,-0.0947,-0.3792,-1.9816,1.7387,0.4369,0.0038,-0.0394,49.28015287,-122.98357793,0.00000000,
6.5220,-0.0960,1.0188,-0.0947,-0.0643,1.5623,0.1996,0.4369,0.0038,-0.0394,49.28015287,-122.98357793,0.00000000,
6.5400,-0.1758,0.9910,-0.0981,-0.0643,1.5623,0.1996,0.4369,0.0038,-0.0394,49.28015287,-122.98357793,0.00000000,
6.5610,-0.1758,0.9910,-0.0981,-0.0643,1.5623,0.1996,0.3465,0.3496,-0.0170,49.28015287,-122.98357793,0.00000000,
6.5800,-0.1758,0.9910,-0.0981,0.9402,-0.0639,0.7929,0.3465,0.3496,-0.0170,49.28015287,-122.98357793,0.00000000,
6.6180,-0.1772,0.9298,-0.1033,0.9402,-0.0639,0.7929,0.3465,0.3496,-0.0170,49.28015287,-122.98357793,0.00000000,
6.6370,-0.1772,0.9298,-0.1033,0.9402,-0.0639,0.7929,0.3962,0.3096,-0.0491,49.28015287,-122.98357793,0.00000000,
6.6560,-0.1772,0.9298,-0.1033,0.0523,0.0561,1.0444,0.3962,0.3096,-0.0491,49.28015287,-122.98357793,0.00000000,
6.6750,-0.1659,0.9989,-0.0983,0.0523,0.0561,1.0444,0.3962,0.3096,-0.0491,49.28015287,-122.98357793,0.00000000,
6.6940,-0.1659,0.9989,-0.0983,0.0523,0.0561,1.0444,0.2837,0.3761,-0.1675,49.28015287,-122.98357793,0.00000000,
6.7140,-0.1659,0.9989,-0.0983,-0.0169,0.0615,1.0171,0.2837,0.3761,-0.1675,49.28015287,-122.98357793,0.00000000,
6.7520,-0.1807,0.8955,-0.1117,-0.0169,0.0615,1.0171,0.2837,0.3761,-0.1675,49.28015287,-122.98357793,0.00000000,
6.7690,-0.1807,0.8955,-0.1117,-0.0169,0.0615,1.0171,-0.2118,0.5229,-0.0776,49.28015287,-122.98357793,0.00000000,
6.7880,-0.1807,0.8955,-0.1117,0.3438,-0.0014,0.5495,-0.2118,0.5229,-0.0776,49.28015287,-122.98357793,0.00000000,
6.8080,-0.3229,0.8371,-0.0006,0.3438,-0.0014,0.5495,-0.2118,0.5229,-0.0776,49.28015287,-122.98357793,0.00000000,
6.8290,-0.3229,0.8371,-0.0006,0.3438,-0.0014,0.5495,-0.3693,-0.0444,0.0983,49.28015287,-122.98357793,0.00000000,
6.8460,-0.3229,0.8371,-0.0006,-0.6532,-1.2332,1.4494,-0.3693,-0.0444,0.0983,49.28015287,-122.98357793,0.00000000,
6.8840,-0.1377,0.8658,0.1386,-0.6532,-1.2332,1.4494,-0.3693,-0.0444,0.0983,49.28015287,-122.98357793,0.00000000,
6.9030,-0.1377,0.8658,0.1386,-0.6532,-1.2332,1.4494,-0.2213,0.4499,0.2751,49.28015287,-122.98357793,0.00000000,
6.9220,-0.1377,0.8658,0.1386,-0.6479,-1.3179,2.0919,-0.2213,0.4499,0.2751,49.28015287,-122.98357793,0.00000000,
6.9410,-0.2802,1.0614,0.0020,-0.6479,-1.3179,2.0919,-0.2213,0.4499,0.2751,49.28015287,-122.98357793,0.00000000,
6.9610,-0.2802,1.0614,0.0020,-0.6479,-1.3179,2.0919,-0.9236,0.3641,0.1910,49.28015287,-122.98357793,0.00000000,
6.9790,-0.2802,1.0614,0.0020,-0.0843,-0.6895,1.2609,-0.9236,0.3641,0.1910,49.28015287,-122.98357793,0.00000000,
7.0180,-0.3638,1.7326,-0.2796,-0.0843,-0.6895,1.2609,-0.9236,0.3641,0.1910,49.28015287,-122.98357793,0.00000000,
7.0370,-0.3638,1.7326,-0.2796,-0.0843,-0.6895,1.2609,-2.2568,-0.9505,0.4375,49.28015287,-122.98357793,0.00000000,
7.0560,-0.3638,1.7326,-0.2796,-3.3215,5.4326,-2.2951,-2.2568,-0.9505,0.4375,49.28015287,-122.98357793,0.00000000,
7.0770,0.0284,1.2734,0.0829,-3.3215,5.4326,-2.2951,-2.2568,-0.9505,0.4375,49.28015287,-122.98357793,0.00000000,
7.0920,0.0284,1.2734,0.0829,-3.3215,5.4326,-2.2951,-1.7959,-0.0656,0.0659,49.28015287,-122.98357793,0.00000000,
7.1120,0.0284,1.2734,0.0829,2.3195,4.5772,-2.0509,-1.7959,-0.0656,0.0659,49.28015287,-122.98357793,0.00000000,
7.1510,-0.3641,1.0999,-0.0002,2.3195,4.5772,-2.0509,-1.7959,-0.0656,0.0659,49.28015287,-122.98357793,0.00000000,
7.1700,-0.3641,1.0999,-0.0002,2.3195,4.5772,-2.0509,-1.0299,-1.6803,0.2853,49.28015287,-122.98357793,0.00000000,
7.1880,-0.3641,1.0999,-0.0002,-3.6356,2.3786,-2.7097,-1.0299,-1.6803,0.2853,49.28015287,-122.98357793,0.00000000,
7.2070,0.2438,0.6609,0.1721,-3.6356,2.3786,-2.7097,-1.0299,-1.6803,0.2853,49.28015287,-122.98357793,0.00000000,
7.2270,0.2438,0.6609,0.1721,-3.6356,2.3786,-2.7097,-0.4920,-0.6400,0.2261,49.28015287,-122.98357793,0.00000000,
7.2460,0.2438,0.6609,0.1721,1.0263,-1.2892,-1.7281,-0.4920,-0.6400,0.2261,49.28015287,-122.98357793,0.00000000,
7.2820,0.0971,0.5393,0.0489,1.0263,-1.2892,-1.7281,-0.4920,-0.6400,0.2261,49.28015287,-122.98357793,0.00000000,
7.3010,0.0971,0.5393,0.0489,1.0263,-1.2892,-1.7281,0.3030,0.3789,-0.2338,49.28015287,-122.98357793,0.00000000,
7.3200,0.0971,0.5393,0.0489,2.9289,-4.0904,-0.8645,0.3030,0.3789,-0.2338,49.28015287,-122.98357793,0.00000000,
7.3400,-0.0594,0.5136,0.1670,2.9289,-4.0904,-0.8645,0.3030,0.3789,-0.2338,49.28015287,-122.98357793,0.00000000,
7.3580,-0.0594,0.5136,0.1670,2.9289,-4.0904,-0.8645,0.4828,0.6159,-0.6813,49.28015287,-122.98357793,0.00000000,
7.3770,-0.0594,0.5136,0.1670,1.5005,-4.7480,-1.8058,0.4828,0.6159,-0.6813,49.28015287,-122.98357793,0.00000000,
7.4060,-0.4971,1.0099,0.7654,1.5005,-4.7480,-1.8058,0.4828,0.6159,-0.6813,49.28015287,-122.98357793,0.00000000,
7.4250,-0.4971,1.0099,0.7654,1.5005,-4.7480,-1.8058,0.6235,-0.5179,-0.1732,49.28015287,-122.98357793,0.00000000,
7.4450,-0.4971,1.0099,0.7654,-2.4656,-1.6920,4.5438,0.6235,-0.5179,-0.1732,49.28015287,-122.98357793,0.00000000,
7.4840,0.3789,0.8860,0.3018,-2.4656,-1.6920,4.5438,0.6235,-0.5179,-0.1732,49.28015287,-122.98357793,0.00000000,
7.5020,0.3789,0.8860,0.3018,-2.4656,-1.6920,4.5438,-0.4436,-0.1632,-0.4567,49.28015287,-122.98357793,0.00000000,
7.5220,0.3789,0.8860,0.3018,2.0226,0.3459,2.0448,-0.4436,-0.1632,-0.4567,49.28015287,-122.98357793,0.00000000,
7.5410,-0.4907,1.6483,-0.1079,2.0226,0.3459,2.0448,-0.4436,-0.1632,-0.4567,49.28015287,-122.98357793,0.00000000,
7.5610,-0.4907,1.6483,-0.1079,2.0226,0.3459,2.0448,-0.3724,-0.2681,0.6738,49.28015287,-122.98357793,0.00000000,
7.5780,-0.4907,1.6483,-0.1079,-2.0914,8.9037,3.0926,-0.3724,-0.2681,0.6738,49.28015287,-122.98357793,0.00000000,
7.6170,0.1075,0.9810,0.0950,-2.0914,8.9037,3.0926,-0.3724,-0.2681,0.6738,49.28015287,-122.98357793,0.00000000,
7.6360,0.1075,0.9810,0.0950,-2.0914,8.9037,3.0926,0.8701,1.1222,-0.6130,49.28015287,-122.98357793,0.00000000,
7.6550,0.1075,0.9810,0.0950,7.3231,-8.7827,-7.5363,0.8701,1.1222,-0.6130,49.28015287,-122.98357793,0.00000000,
7.6730,-0.2934,0.9824,-0.1526,7.3231,-8.7827,-7.5363,0.8701,1.1222,-0.6130,49.28015287,-122.98357793,0.00000000,
7.6930,-0.2934,0.9824,-0.1526,7.3231,-8.7827,-7.5363,1.4089,0.1401,-0.0264,49.28015287,-122.98357793,0.00000000,
7.7120,-0.2934,0.9824,-0.1526,-6.6324,7.0269,-2.2062,1.4089,0.1401,-0.0264,49.28015287,-122.98357793,0.00000000,
7.7510,-0.3760,0.9354,0.0177,-6.6324,7.0269,-2.2062,1.4089,0.1401,-0.0264,49.28015287,-122.98357793,0.00000000,
7.7690,-0.3760,0.9354,0.0177,-6.6324,7.0269,-2.2062,1.8038,0.2483,-0.3603,49.28015287,-122.98357793,0.00000000,
7.7880,-0.3760,0.9354,0.0177,1.3505,-0.6476,2.7474,1.8038,0.2483,-0.3603,49.28015287,-122.98357793,0.00000000,
7.8070,-0.0753,0.6357,0.1743,1.3505,-0.6476,2.7474,1.8038,0.2483,-0.3603,49.28015287,-122.98357793,0.00000000,
7.8260,-0.0753,0.6357,0.1743,1.3505,-0.6476,2.7474,1.3268,0.4035,0.0448,49.28015287,-122.98357793,0.00000000,
7.8450,-0.0753,0.6357,0.1743,-1.0089,-2.2140,2.3885,1.3268,0.4035,0.0448,49.28015287,-122.98357793,0.00000000,
7.8840,-0.1143,0.7361,0.0850,-1.0089,-2.2140,2.3885,1.3268,0.4035,0.0448,49.28015287,-122.98357793,0.00000000,
7.9030,-0.1143,0.7361,0.0850,-1.0089,-2.2140,2.3885,0.8692,0.6848,0.2010,49.28015287,-122.98357793,0.00000000,
7.9210,-0.1143,0.7361,0.0850,1.0714,-2.9806,3.7295,0.8692,0.6848,0.2010,49.28015287,-122.98357793,0.00000000,
7.9400,0.0239,0.6588,0.0430,1.0714,-2.9806,3.7295,0.8692,0.6848,0.2010,49.28015287,-122.98357793,0.00000000,
7.9580,0.0239,0.6588,0.0430,1.0714,-2.9806,3.7295,0.4516,1.0491,0.5502,49.28015287,-122.98357793,0.00000000,
7.9780,0.0239,0.6588,0.0430,0.4772,-2.1686,2.6662,0.4516,1.0491,0.5502,49.28015287,-122.98357793,0.00000000,
8.0170,-0.3706,0.8176,0.0654,0.4772,-2.1686,2.6662,0.4516,1.0491,0.5502,49.28015287,-122.98357793,0.00000000,
8.0360,-0.3706,0.8176,0.0654,0.4772,-2.1686,2.6662,-0.0240,1.2023,0.5565,49.28015287,-122.98357793,0.00000000,
8.0550,-0.3706,0.8176,0.0654,-1.3583,-3.0360,2.5950,-0.0240,1.2023,0.5565,49.28015287,-122.98357793,0.00000000,
8.0760,-0.6700,2.0613,-0.2914,-1.3583,-3.0360,2.5950,-0.0240,1.2023,0.5565,49.28015287,-122.98357793,0.00000000,
8.0940,-0.6700,2.0613,-0.2914,-1.3583,-3.0360,2.5950,-2.1844,-1.0210,-0.1104,49.28015287,-122.98357793,0.00000000,
8.1130,-0.6700,2.0613,-0.2914,-4.2974,4.6924,0.1956,-2.1844,-1.0210,-0.1104,49.28015287,-122.98357793,0.00000000,
8.1520,0.0409,1.8868,0.0372,-4.2974,4.6924,0.1956,-2.1844,-1.0210,-0.1104,49.28015287,-122.98357793,0.00000000,
8.1690,0.0409,1.8868,0.0372,-4.2974,4.6924,0.1956,-2.9096,-1.0364,-0.2949,49.28015287,-122.98357793,0.00000000,
8.1880,0.0409,1.8868,0.0372,-0.3238,10.7530,-5.9118,-2.9096,-1.0364,-0.2949,49.28015287,-122.98357793,0.00000000,
8.2090,-0.3292,1.3602,-0.1732,-0.3238,10.7530,-5.9118,-2.9096,-1.0364,-0.2949,49.28015287,-122.98357793,0.00000000,
8.2280,-0.3292,1.3602,-0.1732,-0.3238,10.7530,-5.9118,-1.9270,-2.1073,-0.1771,49.28015287,-122.98357793,0.00000000,
8.2470,-0.3292,1.3602,-0.1732,-3.5963,4.7939,-1.7883,-1.9270,-2.1073,-0.1771,49.28015287,-122.98357793,0.00000000,
8.2820,-0.0929,0.8970,-0.1375,-3.5963,4.7939,-1.7883,-1.9270,-2.1073,-0.1771,49.28015287,-122.98357793,0.00000000,
8.3010,-0.0929,0.8970,-0.1375,-3.5963,4.7939,-1.7883,-1.0105,-2.0014,-0.6260,49.28015287,-122.98357793,0.00000000,
8.3210,-0.0929,0.8970,-0.1375,0.7198,3.8050,-5.2266,-1.0105,-2.0014,-0.6260,49.28015287,-122.98357793,0.00000000,
8.3390,0.1997,0.1860,0.1328,0.7198,3.8050,-5.2266,-1.0105,-2.0014,-0.6260,49.28015287,-122.98357793,0.00000000,
8.3590,0.1997,0.1860,0.1328,0.7198,3.8050,-5.2266,0.9586,-0.6631,-0.8190,49.28015287,-122.98357793,0.00000000,
8.3780,0.1997,0.1860,0.1328,2.2579,-5.6578,-0.4200,0.9586,-0.6631,-0.8190,49.28015287,-122.98357793,0.00000000,
8.4060,0.0633,0.0205,0.0213,2.2579,-5.6578,-0.4200,0.9586,-0.6631,-0.8190,49.28015287,-122.98357793,0.00000000,
8.4260,0.0633,0.0205,0.0213,2.2579,-5.6578,-0.4200,1.4574,-0.2632,-0.2418,49.28015287,-122.98357793,0.00000000,
8.4450,0.0633,0.0205,0.0213,2.4498,-9.3446,-2.2532,1.4574,-0.2632,-0.2418,49.28015287,-122.98357793,0.00000000,
8.4840,-0.0879,1.4858,0.8091,2.4498,-9.3446,-2.2532,1.4574,-0.2632,-0.2418,49.28015287,-122.98357793,0.00000000,
8.5020,-0.0879,1.4858,0.8091,2.4498,-9.3446,-2.2532,-0.4536,-0.8584,0.1725,49.28015287,-122.98357793,0.00000000,
8.5210,-0.0879,1.4858,0.8091,1.0506,-2.9783,0.6439,-0.4536,-0.8584,0.1725,49.28015287,-122.98357793,0.00000000,
8.5390,0.4138,0.5443,0.1017,1.0506,-2.9783,0.6439,-0.4536,-0.8584,0.1725,49.28015287,-122.98357793,0.00000000,
8.5580,0.4138,0.5443,0.1017,1.0506,-2.9783,0.6439,-0.0479,0.5244,-0.4050,49.28015287,-122.98357793,0.00000000,
8.5780,0.4138,0.5443,0.1017,2.9585,2.6175,6.2917,-0.0479,0.5244,-0.4050,49.28015287,-122.98357793,0.00000000,
8.6170,-0.5105,2.0748,-0.4200,2.9585,2.6175,6.2917,-0.0479,0.5244,-0.4050,49.28015287,-122.98357793,0.00000000,
8.6350,-0.5105,2.0748,-0.4200,2.9585,2.6175,6.2917,-1.3500,-0.3299,0.8117,49.28015287,-122.98357793,0.00000000,
8.6540,-0.5105,2.0748,-0.4200,-1.7752,7.2768,-6.3054,-1.3500,-0.3299,0.8117,49.28015287,-122.98357793,0.00000000,
8.6730,0.2821,0.5652,-0.0703,-1.7752,7.2768,-6.3054,-1.3500,-0.3299,0.8117,49.28015287,-122.98357793,0.00000000,
8.6920,0.2821,0.5652,-0.0703,-1.7752,7.2768,-6.3054,0.1837,2.5171,-1.0649,49.28015287,-122.98357793,0.00000000,
8.7120,0.2821,0.5652,-0.0703,7.2063,-3.4308,-6.6315,0.1837,2.5171,-1.0649,49.28015287,-122.98357793,0.00000000,
8.7490,-0.8006,1.2948,-0.0917,7.2063,-3.4308,-6.6315,0.1837,2.5171,-1.0649,49.28015287,-122.98357793,0.00000000,
8.7680,-0.8006,1.2948,-0.0917,7.2063,-3.4308,-6.6315,1.4529,-0.1946,0.4443,49.28015287,-122.98357793,0.00000000,
8.7870,-0.8006,1.2948,-0.0917,-10.3772,4.5263,-0.9007,1.4529,-0.1946,0.4443,49.28015287,-122.98357793,0.00000000,
8.8060,-0.1967,0.9112,0.3113,-10.3772,4.5263,-0.9007,1.4529,-0.1946,0.4443,49.28015287,-122.98357793,0.00000000,
8.8270,-0.1967,0.9112,0.3113,-10.3772,4.5263,-0.9007,2.3566,0.5478,-0.5303,49.28015287,-122.98357793,0.00000000,
8.8450,-0.1967,0.9112,0.3113,4.1535,-1.1262,3.9724,2.3566,0.5478,-0.5303,49.28015287,-122.98357793,0.00000000,
8.8830,-0.2791,0.6827,0.1387,4.1535,-1.1262,3.9724,2.3566,0.5478,-0.5303,49.28015287,-122.98357793,0.00000000,
8.9010,-0.2791,0.6827,0.1387,4.1535,-1.1262,3.9724,2.0192,0.3527,-0.2221,49.28015287,-122.98357793,0.00000000,
8.9200,-0.2791,0.6827,0.1387,-3.0032,-0.3910,2.3072,2.0192,0.3527,-0.2221,49.28015287,-122.98357793,0.00000000,
8.9380,0.1165,0.7174,0.1504,-3.0032,-0.3910,2.3072,2.0192,0.3527,-0.2221,49.28015287,-122.98357793,0.00000000,
8.9580,0.1165,0.7174,0.1504,-3.0032,-0.3910,2.3072,1.4310,1.7957,0.1409,49.28015287,-122.98357793,0.00000000,
8.9780,0.1165,0.7174,0.1504,4.1381,-3.6999,5.6987,1.4310,1.7957,0.1409,49.28015287,-122.98357793,0.00000000,
9.0170,-0.1843,0.6541,0.1436,4.1381,-3.6999,5.6987,1.4310,1.7957,0.1409,49.28015287,-122.98357793,0.00000000,
9.0360,-0.1843,0.6541,0.1436,4.1381,-3.6999,5.6987,0.0337,1.5680,0.6549,49.28015287,-122.98357793,0.00000000,
9.0530,-0.1843,0.6541,0.1436,-0.7398,-2.3553,3.2949,0.0337,1.5680,0.6549,49.28015287,-122.98357793,0.00000000,
9.0740,-0.6383,1.4456,-0.1612,-0.7398,-2.3553,3.2949,0.0337,1.5680,0.6549,49.28015287,-122.98357793,0.00000000,
9.0910,-0.6383,1.4456,-0.1612,-0.7398,-2.3553,3.2949,-1.8435,0.0838,0.0247,49.28015287,-122.98357793,0.00000000,
9.1110,-0.6383,1.4456,-0.1612,-3.0475,0.6132,0.4049,-1.8435,0.0838,0.0247,49.28015287,-122.98357793,0.00000000,
9.1490,-0.1889,2.0858,-0.3105,-3.0475,0.6132,0.4049,-1.8435,0.0838,0.0247,49.28015287,-122.98357793,0.00000000,
9.1680,-0.1889,2.0858,-0.3105,-3.0475,0.6132,0.4049,-3.0696,-1.6272,-0.4778,49.28015287,-122.98357793,0.00000000,
9.1870,-0.1889,2.0858,-0.3105,-2.8975,9.7160,-6.3718,-3.0696,-1.6272,-0.4778,49.28015287,-122.98357793,0.00000000,
9.2060,-0.4788,1.4830,0.1253,-2.8975,9.7160,-6.3718,-3.0696,-1.6272,-0.4778,49.28015287,-122.98357793,0.00000000,
9.2250,-0.4788,1.4830,0.1253,-2.8975,9.7160,-6.3718,-2.0169,-1.1505,-0.0366,49.28015287,-122.98357793,0.00000000,
9.2440,-0.4788,1.4830,0.1253,-0.9060,7.3469,0.5131,-2.0169,-1.1505,-0.0366,49.28015287,-122.98357793,0.00000000,
9.2840,-0.0822,1.0890,-0.2937,-0.9060,7.3469,0.5131,-2.0169,-1.1505,-0.0366,49.28015287,-122.98357793,0.00000000,
9.3000,-0.0822,1.0890,-0.2937,-0.9060,7.3469,0.5131,-1.0581,-2.0246,-0.3038,49.28015287,-122.98357793,0.00000000,
9.3200,-0.0822,1.0890,-0.2937,-0.9468,4.3090,-5.0937,-1.0581,-2.0246,-0.3038,49.28015064,-122.98359276,0.00000000,
9.3390,0.2501,0.1205,0.2000,-0.9468,4.3090,-5.0937,-1.0581,-2.0246,-0.3038,49.28015064,-122.98359276,0.00000000,
9.3580,0.2501,0.1205,0.2000,-0.9468,4.3090,-5.0937,0.5851,-0.2292,-0.4949,49.28015064,-122.98359276,0.00000000,
9.3770,0.2501,0.1205,0.2000,2.5035,-5.4962,-1.5000,0.5851,-0.2292,-0.4949,49.28015064,-122.98359276,0.00000000,
9.4060,0.0338,-0.0881,-0.0428,2.5035,-5.4962,-1.5000,0.5851,-0.2292,-0.4949,49.28015064,-122.98359276,0.00000000,
9.4250,0.0338,-0.0881,-0.0428,2.5035,-5.4962,-1.5000,1.3134,-0.4535,-0.4436,49.28015064,-122.98359276,0.00000000,
9.4440,0.0338,-0.0881,-0.0428,3.6097,-10.4181,-1.9896,1.3134,-0.4535,-0.4436,49.28015064,-122.98359276,0.00000000,
9.4820,-0.1652,1.5520,0.9946,3.6097,-10.4181,-1.9896,1.3134,-0.4535,-0.4436,49.28015064,-122.98359276,0.00000000,
9.5010,-0.1652,1.5520,0.9946,3.6097,-10.4181,-1.9896,-0.0185,-0.3419,0.3050,49.28015064,-122.98359276,0.00000000,
9.5200,-0.1652,1.5520,0.9946,-0.0086,-2.0852,2.4731,-0.0185,-0.3419,0.3050,49.28015064,-122.98359276,0.00000000,
9.5380,0.3636,0.4999,-0.5371,-0.0086,-2.0852,2.4731,-0.0185,-0.3419,0.3050,49.28015064,-122.98359276,0.00000000,
9.5580,0.3636,0.4999,-0.5371,-0.0086,-2.0852,2.4731,-0.5448,0.5119,-0.5602,49.28015064,-122.98359276,0.00000000,
9.5780,0.3636,0.4999,-0.5371,5.1570,0.1759,2.7605,-0.5448,0.5119,-0.5602,49.28015064,-122.98359276,0.00000000,
9.6160,-0.5054,2.0124,-0.4508,5.1570,0.1759,2.7605,-0.5448,0.5119,-0.5602,49.28015064,-122.98359276,0.00000000,
9.6370,-0.5054,2.0124,-0.4508,5.1570,0.1759,2.7605,-0.8791,0.6899,1.2119,49.28015064,-122.98359276,0.00000000,
9.6540,-0.5054,2.0124,-0.4508,-6.3386,15.2737,-2.5946,-0.8791,0.6899,1.2119,49.28015064,-122.98359276,0.00000000,
9.6710,-0.5545,1.0746,0.2451,-6.3386,15.2737,-2.5946,-0.8791,0.6899,1.2119,49.28015064,-122.98359276,0.00000000,
9.6900,-0.5545,1.0746,0.2451,-6.3386,15.2737,-2.5946,1.4199,1.8324,-1.4028,49.28015064,-122.98359276,0.00000000,
9.7100,-0.5545,1.0746,0.2451,11.5787,-13.0552,-6.4181,1.4199,1.8324,-1.4028,49.28015064,-122.98359276,0.00000000,
9.7480,-0.1528,0.7457,0.1179,11.5787,-13.0552,-6.4181,1.4199,1.8324,-1.4028,49.28015064,-122.98359276,0.00000000,
9.7680,-0.1528,0.7457,0.1179,11.5787,-13.0552,-6.4181,1.7141,0.5196,0.2753,49.28015064,-122.98359276,0.00000000,
9.7870,-0.1528,0.7457,0.1179,-12.9753,7.9307,-3.2628,1.7141,0.5196,0.2753,49.28015064,-122.98359276,0.00000000,
9.8060,-0.4850,0.9538,-0.0238,-12.9753,7.9307,-3.2628,1.7141,0.5196,0.2753,49.28015064,-122.98359276,0.00000000,
9.8270,-0.4850,0.9538,-0.0238,-12.9753,7.9307,-3.2628,2.1646,0.6635,-0.6172,49.28015064,-122.98359276,0.00000000,
9.8430,-0.4850,0.9538,-0.0238,4.3253,-0.8196,5.8531,2.1646,0.6635,-0.6172,49.28015064,-122.98359276,0.00000000,
9.8800,0.1215,0.4622,0.3685,4.3253,-0.8196,5.8531,2.1646,0.6635,-0.6172,49.28015064,-122.98359276,0.00000000,
9.9010,0.1215,0.4622,0.3685,4.3253,-0.8196,5.8531,1.5644,1.4315,0.2263,49.28015064,-122.98359276,0.00000000,
9.9200,0.1215,0.4622,0.3685,-1.1506,-3.4936,4.6271,1.5644,1.4315,0.2263,49.28015064,-122.98359276,0.00000000,
9.9390,-0.2810,0.7763,0.1341,-1.1506,-3.4936,4.6271,1.5644,1.4315,0.2263,49.28015064,-122.98359276,0.00000000,
9.9570,-0.2810,0.7763,0.1341,-1.1506,-3.4936,4.6271,0.3365,0.8395,0.5715,49.28015064,-122.98359276,0.00000000,
9.9770,-0.2810,0.7763,0.1341,0.7670,-1.8681,4.4302,0.3365,0.8395,0.5715,49.28015064,-122.98359276,0.00000000,
10.0150,-0.2371,0.9752,-0.0284,0.7670,-1.8681,4.4302,0.3365,0.8395,0.5715,49.28015064,-122.98359276,0.00000000,
10.0340,-0.2371,0.9752,-0.0284,0.7670,-1.8681,4.4302,-1.4709,0.7512,0.5912,49.28015064,-122.98359276,0.00000000,
10.0520,-0.2371,0.9752,-0.0284,0.3576,-2.4850,3.0271,-1.4709,0.7512,0.5912,49.28015064,-122.98359276,0.00000000,
10.0710,-0.6891,1.9429,-0.5746,0.3576,-2.4850,3.0271,-1.4709,0.7512,0.5912,49.28015064,-122.98359276,0.00000000,
10.0900,-0.6891,1.9429,-0.5746,0.3576,-2.4850,3.0271,-2.9127,-1.5741,-0.2453,49.28015064,-122.98359276,0.00000000,
10.1090,-0.6891,1.9429,-0.5746,-4.3807,6.7075,-4.1365,-2.9127,-1.5741,-0.2453,49.28015064,-122.98359276,0.00000000,
10.1470,-0.2009,1.7427,0.2081,-4.3807,6.7075,-4.1365,-2.9127,-1.5741,-0.2453,49.28015064,-122.98359276,0.00000000,
10.1670,-0.2009,1.7427,0.2081,-4.3807,6.7075,-4.1365,-2.7841,-1.1259,-0.1847,49.28015064,-122.98359276,0.00000000,
10.1860,-0.2009,1.7427,0.2081,-1.1758,9.8956,-3.5641,-2.7841,-1.1259,-0.1847,49.28015064,-122.98359276,0.00000000,
10.2050,-0.3463,1.2700,-0.1055,-1.1758,9.8956,-3.5641,-2.7841,-1.1259,-0.1847,49.28015064,-122.98359276,0.00000000,
10.2240,-0.3463,1.2700,-0.1055,-1.1758,9.8956,-3.5641,-0.9751,-1.9162,-0.2272,49.28015064,-122.98359276,0.00000000,
10.2420,-0.3463,1.2700,-0.1055,-2.4159,4.7459,-1.9190,-0.9751,-1.9162,-0.2272,49.28015064,-122.98359276,0.00000000,
10.2810,0.1709,0.3384,0.0448,-2.4159,4.7459,-1.9190,-0.9751,-1.9162,-0.2272,49.28015064,-122.98359276,0.00000000,
10.2990,0.1709,0.3384,0.0448,-2.4159,4.7459,-1.9190,0.1679,-0.9500,-0.1854,49.28015064,-122.98359276,0.00000000,
10.3180,0.1709,0.3384,0.0448,1.0400,-2.5925,-4.0952,0.1679,-0.9500,-0.1854,49.28015064,-122.98359276,0.00000000,
10.3370,0.2090,-0.0277,-0.0162,1.0400,-2.5925,-4.0952,0.1679,-0.9500,-0.1854,49.28015064,-122.98359276,0.00000000,
10.3560,0.2090,-0.0277,-0.0162,1.0400,-2.5925,-4.0952,1.5640,0.1764,-0.4010,49.28015064,-122.98359276,0.00000000,
10.3750,0.2090,-0.0277,-0.0162,4.9084,-8.5564,-0.3020,1.5640,0.1764,-0.4010,49.28015064,-122.98359276,0.00000000,
10.4040,-0.0821,1.2494,0.7694,4.9084,-8.5564,-0.3020,1.5640,0.1764,-0.4010,49.28015064,-122.98359276,0.00000000,
10.4230,-0.0821,1.2494,0.7694,4.9084,-8.5564,-0.3020,0.0084,0.4616,-0.0388,49.28015064,-122.98359276,0.00000000,
10.4420,-0.0821,1.2494,0.7694,2.0325,-6.2250,0.4624,0.0084,0.4616,-0.0388,49.28015064,-122.98359276,0.00000000,
10.4800,-0.0337,0.6764,-0.1823,2.0325,-6.2250,0.4624,0.0084,0.4616,-0.0388,49.28015064,-122.98359276,0.00000000,
10.5000,-0.0337,0.6764,-0.1823,2.0325,-6.2250,0.4624,-0.6443,0.1537,-0.2802,49.28015064,-122.98359276,0.00000000,
10.5190,-0.0337,0.6764,-0.1823,1.1326,3.4134,4.4550,-0.6443,0.1537,-0.2802,49.28015064,-122.98359276,0.00000000,
10.5380,-0.0895,1.6107,-0.3582,1.1326,3.4134,4.4550,-0.6443,0.1537,-0.2802,49.28015064,-122.98359276,0.00000000,
10.5560,-0.0895,1.6107,-0.3582,1.1326,3.4134,4.4550,-0.6167,0.7721,1.1230,49.28015064,-122.98359276,0.00000000,
10.5770,-0.0895,1.6107,-0.3582,-4.0452,8.1954,-2.4142,-0.6167,0.7721,1.1230,49.28015064,-122.98359276,0.00000000,
10.6140,-0.6478,1.2532,0.1371,-4.0452,8.1954,-2.4142,-0.6167,0.7721,1.1230,49.28015064,-122.98359276,0.00000000,
10.6350,-0.6478,1.2532,0.1371,-4.0452,8.1954,-2.4142,0.8443,1.3379,-0.7787,49.28015064,-122.98359276,0.00000000,
10.6520,-0.6478,1.2532,0.1371,9.3062,-5.1605,-6.5457,0.8443,1.3379,-0.7787,49.28015064,-122.98359276,0.00000000,
10.6700,-0.1300,0.7213,0.1955,9.3062,-5.1605,-6.5457,0.8443,1.3379,-0.7787,49.28015064,-122.98359276,0.00000000,
10.6910,-0.1300,0.7213,0.1955,9.3062,-5.1605,-6.5457,1.6539,0.2658,0.2027,49.28015064,-122.98359276,0.00000000,
10.7090,-0.1300,0.7213,0.1955,-8.9350,3.1818,-0.3539,1.6539,0.2658,0.2027,49.28015064,-122.98359276,0.00000000,
10.7470,-0.3994,0.8387,0.0532,-8.9350,3.1818,-0.3539,1.6539,0.2658,0.2027,49.28015064,-122.98359276,0.00000000,
10.7670,-0.3994,0.8387,0.0532,-8.9350,3.1818,-0.3539,1.7579,0.3246,-0.2582,49.28015064,-122.98359276,0.00000000,
10.7850,-0.3994,0.8387,0.0532,0.9398,-1.0765,3.8183,1.7579,0.3246,-0.2582,49.28015064,-122.98359276,0.00000000,
10.8050,-0.0672,0.6012,0.3806,0.9398,-1.0765,3.8183,1.7579,0.3246,-0.2582,49.28015064,-122.98359276,0.00000000,
10.8260,-0.0672,0.6012,0.3806,0.9398,-1.0765,3.8183,1.1319,0.7067,0.2146,49.28015064,-122.98359276,0.00000000,
10.8420,-0.0672,0.6012,0.3806,-0.4905,-3.0281,4.4373,1.1319,0.7067,0.2146,49.28015064,-122.98359276,0.00000000,
10.8810,-0.1745,0.6811,0.3633,-0.4905,-3.0281,4.4373,1.1319,0.7067,0.2146,49.28015064,-122.98359276,0.00000000,
10.9000,-0.1745,0.6811,0.3633,-0.4905,-3.0281,4.4373,0.2385,0.7660,0.3577,49.28015064,-122.98359276,0.00000000,
10.9180,-0.1745,0.6811,0.3633,1.1423,-3.0919,5.9114,0.2385,0.7660,0.3577,49.28015064,-122.98359276,0.00000000,
10.9370,-0.5165,1.5476,-0.1546,1.1423,-3.0919,5.9114,0.2385,0.7660,0.3577,49.28015064,-122.98359276,0.00000000,
10.9560,-0.5165,1.5476,-0.1546,1.1423,-3.0919,5.9114,-1.5360,-0.2210,-0.0882,49.28015064,-122.98359276,0.00000000,
10.9770,-0.5165,1.5476,-0.1546,-1.5185,-0.4515,0.2476,-1.5360,-0.2210,-0.0882,49.28015064,-122.98359276,0.00000000,
11.0130,-0.2535,2.0539,-0.2183,-1.5185,-0.4515,0.2476,-1.5360,-0.2210,-0.0882,49.28015064,-122.98359276,0.00000000,
11.0330,-0.2535,2.0539,-0.2183,-1.5185,-0.4515,0.2476,-2.7522,-1.4061,-0.3830,49.28015064,-122.98359276,0.00000000,
11.0520,-0.2535,2.0539,-0.2183,-3.9882,12.2405,-5.8721,-2.7522,-1.4061,-0.3830,49.28015064,-122.98359276,0.00000000,
11.0710,-0.4523,1.3842,0.1216,-3.9882,12.2405,-5.8721,-2.7522,-1.4061,-0.3830,49.28015064,-122.98359276,0.00000000,
11.0900,-0.4523,1.3842,0.1216,-3.9882,12.2405,-5.8721,-1.3384,-1.0673,0.0711,49.28015064,-122.98359276,0.00000000,
11.1090,-0.4523,1.3842,0.1216,0.3173,5.7620,0.7245,-1.3384,-1.0673,0.0711,49.28015064,-122.98359276,0.00000000,
11.1470,-0.0839,0.8652,-0.2162,0.3173,5.7620,0.7245,-1.3384,-1.0673,0.0711,49.28015064,-122.98359276,0.00000000,
11.1660,-0.0839,0.8652,-0.2162,0.3173,5.7620,0.7245,-0.5407,-1.4546,-0.0116,49.28015064,-122.98359276,0.00000000,
11.1850,-0.0839,0.8652,-0.2162,-1.0791,2.8418,-4.4535,-0.5407,-1.4546,-0.0116,49.28015064,-122.98359276,0.00000000,
11.2030,0.3752,0.0877,0.1855,-1.0791,2.8418,-4.4535,-0.5407,-1.4546,-0.0116,49.28015064,-122.98359276,0.00000000,
11.2240,0.3752,0.0877,0.1855,-1.0791,2.8418,-4.4535,1.0315,0.7370,-0.3942,49.28015064,-122.98359276,0.00000000,
11.2430,0.3752,0.0877,0.1855,4.3227,-6.4979,0.0257,1.0315,0.7370,-0.3942,49.28015064,-122.98359276,0.00000000,
11.2800,-0.1548,0.0257,0.0344,4.3227,-6.4979,0.0257,1.0315,0.7370,-0.3942,49.28015064,-122.98359276,0.00000000,
11.3000,-0.1548,0.0257,0.0344,4.3227,-6.4979,0.0257,1.2272,-0.7360,-0.3540,49.28015064,-122.98359276,0.00000000,
11.3180,-0.1548,0.0257,0.0344,2.6722,-10.2565,-1.9667,1.2272,-0.7360,-0.3540,49.28015064,-122.98359276,0.00000000,
11.3370,-0.1034,1.4412,0.8565,2.6722,-10.2565,-1.9667,1.2272,-0.7360,-0.3540,49.28015064,-122.98359276,0.00000000,
11.3570,-0.1034,1.4412,0.8565,2.6722,-10.2565,-1.9667,0.3814,-0.1758,0.0140,49.28015064,-122.98359276,0.00000000,
11.3770,-0.1034,1.4412,0.8565,0.3330,0.6280,5.6866,0.3814,-0.1758,0.0140,49.28015064,-122.98359276,0.00000000,
11.4040,-0.3173,1.9084,-0.1446,0.3330,0.6280,5.6866,0.3814,-0.1758,0.0140,49.28015064,-122.98359276,0.00000000,
11.4230,-0.3173,1.9084,-0.1446,0.3330,0.6280,5.6866,-1.7537,-0.5039,0.2477,49.28015064,-122.98359276,0.00000000,
11.4420,-0.3173,1.9084,-0.1446,3.4501,1.4278,-2.4583,-1.7537,-0.5039,0.2477,49.28015064,-122.98359276,0.00000000,
11.4800,0.6890,0.1238,-0.6441,3.4501,1.4278,-2.4583,-1.7537,-0.5039,0.2477,49.28015064,-122.98359276,0.00000000,
11.4980,0.6890,0.1238,-0.6441,3.4501,1.4278,-2.4583,-1.0133,3.0311,0.0835,49.28015064,-122.98359276,0.00000000,
11.5180,0.6890,0.1238,-0.6441,0.5068,7.3496,-5.5416,-1.0133,3.0311,0.0835,49.28015064,-122.98359276,0.00000000,
11.5370,-1.4752,1.7512,-0.0051,0.5068,7.3496,-5.5416,-1.0133,3.0311,0.0835,49.28015064,-122.98359276,0.00000000,
11.5560,-1.4752,1.7512,-0.0051,0.5068,7.3496,-5.5416,1.0865,0.2232,-0.1313,49.28015064,-122.98359276,0.00000000,
11.5780,-1.4752,1.7512,-0.0051,-3.1429,1.0412,0.3700,1.0865,0.2232,-0.1313,49.28015064,-122.98359276,0.00000000,
11.6120,0.2152,0.7472,0.3959,-3.1429,1.0412,0.3700,1.0865,0.2232,-0.1313,49.28015064,-122.98359276,0.00000000,
11.6320,0.2152,0.7472,0.3959,-3.1429,1.0412,0.3700,1.6948,0.5485,-0.0826,49.28015064,-122.98359276,0.00000000,
11.6510,0.2152,0.7472,0.3959,-0.7437,-1.3610,0.4388,1.6948,0.5485,-0.0826,49.28015064,-122.98359276,0.00000000,
11.6710,-0.4636,0.8075,0.1219,-0.7437,-1.3610,0.4388,1.6948,0.5485,-0.0826,49.28015064,-122.98359276,0.00000000,
11.6890,-0.4636,0.8075,0.1219,-0.7437,-1.3610,0.4388,1.0753,0.4906,-0.1280,49.28015064,-122.98359276,0.00000000,
11.7080,-0.4636,0.8075,0.1219,0.1709,-0.8057,1.1324,1.0753,0.4906,-0.1280,49.28015064,-122.98359276,0.00000000,
11.7470,0.0337,0.4819,0.4561,0.1709,-0.8057,1.1324,1.0753,0.4906,-0.1280,49.28015064,-122.98359276,0.00000000,
11.7660,0.0337,0.4819,0.4561,0.1709,-0.8057,1.1324,0.7036,1.0774,0.2273,49.28015064,-122.98359276,0.00000000,
11.7850,0.0337,0.4819,0.4561,0.4078,-3.2492,4.5463,0.7036,1.0774,0.2273,49.28015064,-122.98359276,0.00000000,
11.8020,-0.3856,0.8557,0.0853,0.4078,-3.2492,4.5463,0.7036,1.0774,0.2273,49.28015064,-122.98359276,0.00000000,
11.8220,-0.3856,0.8557,0.0853,0.4078,-3.2492,4.5463,-0.8379,0.3234,0.6696,49.28015064,-122.98359276,0.00000000,
11.8420,-0.3856,0.8557,0.0853,-0.7103,-2.5416,3.3896,-0.8379,0.3234,0.6696,49.28015064,-122.98359276,0.00000000,
11.8800,-0.3114,1.8315,0.3623,-0.7103,-2.5416,3.3896,-0.8379,0.3234,0.6696,49.28015064,-122.98359276,0.00000000,
11.9000,-0.3114,1.8315,0.3623,-0.7103,-2.5416,3.3896,-2.4082,-0.0419,0.0516,49.28015064,-122.98359276,0.00000000,
11.9180,-0.3114,1.8315,0.3623,0.0155,0.4201,-0.3802,-2.4082,-0.0419,0.0516,49.28015064,-122.98359276,0.00000000,
11.9370,-0.2988,1.5729,0.2037,0.0155,0.4201,-0.3802,-2.4082,-0.0419,0.0516,49.28015064,-122.98359276,0.00000000,
11.9550,-0.2988,1.5729,0.2037,0.0155,0.4201,-0.3802,-2.5583,-0.1517,-0.3809,49.28015064,-122.98359276,0.00000000,
11.9760,-0.2988,1.5729,0.2037,-1.9272,11.7376,-1.7567,-2.5583,-0.1517,-0.3809,49.28015064,-122.98359276,0.00000000,
12.0130,-0.5725,1.0767,0.2058,-1.9272,11.7376,-1.7567,-2.5583,-0.1517,-0.3809,49.28015064,-122.98359276,0.00000000,
12.0320,-0.5725,1.0767,0.2058,-1.9272,11.7376,-1.7567,-0.2602,-1.5586,0.1249,49.28015064,-122.98359276,0.00000000,
12.0510,-0.5725,1.0767,0.2058,-3.7996,2.7993,1.1543,-0.2602,-1.5586,0.1249,49.28015064,-122.98359276,0.00000000,
12.0700,0.1134,0.4289,0.0252,-3.7996,2.7993,1.1543,-0.2602,-1.5586,0.1249,49.28015064,-122.98359276,0.00000000,
12.0890,0.1134,0.4289,0.0252,-3.7996,2.7993,1.1543,0.7919,-0.3863,-0.1322,49.28015064,-122.98359276,0.00000000,
12.1070,0.1134,0.4289,0.0252,0.3368,-2.0481,-2.1535,0.7919,-0.3863,-0.1322,49.28015064,-122.98359276,0.00000000,
12.1460,0.1824,0.1386,0.1808,0.3368,-2.0481,-2.1535,0.7919,-0.3863,-0.1322,49.28015064,-122.98359276,0.00000000,
12.1660,0.1824,0.1386,0.1808,0.3368,-2.0481,-2.1535,1.9735,0.5044,-0.9113,49.28015064,-122.98359276,0.00000000,
12.1840,0.1824,0.1386,0.1808,6.2149,-7.3248,1.3674,1.9735,0.5044,-0.9113,49.28015064,-122.98359276,0.00000000,
12.2030,-0.5404,0.9853,0.5163,6.2149,-7.3248,1.3674,1.9735,0.5044,-0.9113,49.28015064,-122.98359276,0.00000000,
12.2220,-0.5404,0.9853,0.5163,6.2149,-7.3248,1.3674,0.8945,-1.1952,0.2999,49.28015064,-122.98359276,0.00000000,
12.2430,-0.5404,0.9853,0.5163,-2.3033,-5.9897,1.0491,0.8945,-1.1952,0.2999,49.28015064,-122.98359276,0.00000000,
12.2800,0.5177,0.8300,0.2476,-2.3033,-5.9897,1.0491,0.8945,-1.1952,0.2999,49.28015064,-122.98359276,0.00000000,
12.2970,0.5177,0.8300,0.2476,-2.3033,-5.9897,1.0491,0.1468,0.3543,0.1582,49.28015064,-122.98359276,0.00000000,
12.3180,0.5177,0.8300,0.2476,2.5111,3.2344,5.3493,0.1468,0.3543,0.1582,49.28015064,-122.98359276,0.00000000,
12.3360,-0.9477,2.3204,-0.0576,2.5111,3.2344,5.3493,0.1468,0.3543,0.1582,49.28015064,-122.98359276,0.00000000,
12.3570,-0.9477,2.3204,-0.0576,2.5111,3.2344,5.3493,-1.3114,0.0920,0.7909,49.28015064,-122.98359276,0.00000000,
12.3750,-0.9477,2.3204,-0.0576,1.2318,7.4149,-2.9104,-1.3114,0.0920,0.7909,49.28015064,-122.98359276,0.00000000,
12.4030,0.7803,0.0324,-0.0595,1.2318,7.4149,-2.9104,-1.3114,0.0920,0.7909,49.28015064,-122.98359276,0.00000000,
12.4220,0.7803,0.0324,-0.0595,1.2318,7.4149,-2.9104,-0.3904,2.3727,-1.2162,49.28015064,-122.98359276,0.00000000,
12.4400,0.7803,0.0324,-0.0595,5.0413,-7.9823,-10.6033,-0.3904,2.3727,-1.2162,49.28015064,-122.98359276,0.00000000,
12.4780,-1.0786,1.3267,-0.3388,5.0413,-7.9823,-10.6033,-0.3904,2.3727,-1.2162,49.28015064,-122.98359276,0.00000000,
12.4970,-1.0786,1.3267,-0.3388,5.0413,-7.9823,-10.6033,0.8019,-0.1388,0.8038,49.28015064,-122.98359276,0.00000000,
12.5170,-1.0786,1.3267,-0.3388,-11.4142,8.8684,2.1727,0.8019,-0.1388,0.8038,49.28015064,-122.98359276,0.00000000,
12.5360,-0.1003,0.8325,0.3309,-11.4142,8.8684,2.1727,0.8019,-0.1388,0.8038,49.28015064,-122.98359276,0.00000000,
12.5560,-0.1003,0.8325,0.3309,-11.4142,8.8684,2.1727,1.3357,1.3060,-0.3373,49.28015064,-122.98359276,0.00000000,
12.5750,-0.1003,0.8325,0.3309,6.2354,-3.8759,4.8425,1.3357,1.3060,-0.3373,49.28015064,-122.98359276,0.00000000,
12.6110,-0.3167,0.5372,0.2272,6.2354,-3.8759,4.8425,1.3357,1.3060,-0.3373,49.28015064,-122.98359276,0.00000000,
12.6310,-0.3167,0.5372,0.2272,6.2354,-3.8759,4.8425,1.0668,0.6775,0.1257,49.28015064,-122.98359276,0.00000000,
12.6510,-0.3167,0.5372,0.2272,-4.2468,-1.2973,2.2712,1.0668,0.6775,0.1257,49.28015064,-122.98359276,0.00000000,
12.6710,-0.2884,0.6784,0.4198,-4.2468,-1.2973,2.2712,1.0668,0.6775,0.1257,49.28015064,-122.98359276,0.00000000,
12.6880,-0.2884,0.6784,0.4198,-4.2468,-1.2973,2.2712,1.0153,1.0236,0.4333,49.28015064,-122.98359276,0.00000000,
12.7090,-0.2884,0.6784,0.4198,0.5855,-4.8119,5.3341,1.0153,1.0236,0.4333,49.28015064,-122.98359276,0.00000000,
12.7470,-0.2477,0.8390,0.1931,0.5855,-4.8119,5.3341,1.0153,1.0236,0.4333,49.28015064,-122.98359276,0.00000000,
12.7660,-0.2477,0.8390,0.1931,0.5855,-4.8119,5.3341,-0.4557,0.2832,0.8553,49.28015064,-122.98359276,0.00000000,
12.7840,-0.2477,0.8390,0.1931,-1.3927,-1.5849,3.1397,-0.4557,0.2832,0.8553,49.28015064,-122.98359276,0.00000000,
12.8030,-0.5843,2.1628,-0.2329,-1.3927,-1.5849,3.1397,-0.4557,0.2832,0.8553,49.28015064,-122.98359276,0.00000000,
12.8220,-0.5843,2.1628,-0.2329,-1.3927,-1.5849,3.1397,-2.0938,-0.6971,-0.0271,49.28015064,-122.98359276,0.00000000,
12.8410,-0.5843,2.1628,-0.2329,-1.3864,2.6251,0.5689,-2.0938,-0.6971,-0.0271,49.28015064,-122.98359276,0.00000000,
12.8800,-0.4421,1.4107,0.2806,-1.3864,2.6251,0.5689,-2.0938,-0.6971,-0.0271,49.28015064,-122.98359276,0.00000000,
12.8980,-0.4421,1.4107,0.2806,-1.3864,2.6251,0.5689,-2.4155,-1.4827,-0.6801,49.28015064,-122.98359276,0.00000000,
12.9180,-0.4421,1.4107,0.2806,-4.4184,11.2291,-3.3758,-2.4155,-1.4827,-0.6801,49.28015064,-122.98359276,0.00000000,
12.9360,-0.4249,1.3301,-0.0026,-4.4184,11.2291,-3.3758,-2.4155,-1.4827,-0.6801,49.28015064,-122.98359276,0.00000000,
12.9570,-0.4249,1.3301,-0.0026,-4.4184,11.2291,-3.3758,-0.7751,-2.5131,-0.1813,49.28015064,-122.98359276,0.00000000,
12.9740,-0.4249,1.3301,-0.0026,-5.0697,3.7940,-1.0501,-0.7751,-2.5131,-0.1813,49.28015064,-122.98359276,0.00000000,
13.0120,0.2176,0.5447,0.1414,-5.0697,3.7940,-1.0501,-0.7751,-2.5131,-0.1813,49.28015064,-122.98359276,0.00000000,
13.0320,0.2176,0.5447,0.1414,-5.0697,3.7940,-1.0501,0.2118,-0.7299,-0.6576,49.28015064,-122.98359276,0.00000000,
13.0500,0.2176,0.5447,0.1414,3.3599,0.6213,-2.9440,0.2118,-0.7299,-0.6576,49.28015064,-122.98359276,0.00000000,
13.0690,0.0777,0.0052,-0.0894,3.3599,0.6213,-2.9440,0.2118,-0.7299,-0.6576,49.28015064,-122.98359276,0.00000000,
13.0890,0.0777,0.0052,-0.0894,3.3599,0.6213,-2.9440,1.7291,-0.1407,-0.4239,49.28015064,-122.98359276,0.00000000,
13.1080,0.0777,0.0052,-0.0894,3.6440,-7.7496,0.9746,1.7291,-0.1407,-0.4239,49.28015064,-122.98359276,0.00000000,
13.1490,-0.0881,0.6455,0.1641,3.6440,-7.7496,0.9746,1.7291,-0.1407,-0.4239,49.28015064,-122.98359276,0.00000000,
13.1660,-0.0881,0.6455,0.1641,3.6440,-7.7496,0.9746,1.3673,-0.9367,0.1551,49.28015064,-122.98359276,0.00000000,
13.1840,-0.0881,0.6455,0.1641,1.0761,-9.4086,-1.4683,1.3673,-0.9367,0.1551,49.28015064,-122.98359276,0.00000000,
13.2030,0.3916,1.2943,0.3461,1.0761,-9.4086,-1.4683,1.3673,-0.9367,0.1551,49.28015064,-122.98359276,0.00000000,
13.2220,0.3916,1.2943,0.3461,1.0761,-9.4086,-1.4683,-0.1295,0.4990,-0.2996,49.28015064,-122.98359276,0.00000000,
13.2410,0.3916,1.2943,0.3461,3.0266,6.9482,4.9414,-0.1295,0.4990,-0.2996,49.28015064,-122.98359276,0.00000000,
13.2780,-0.7885,1.8834,0.1081,3.0266,6.9482,4.9414,-0.1295,0.4990,-0.2996,49.28015064,-122.98359276,0.00000000,
13.2970,-0.7885,1.8834,0.1081,3.0266,6.9482,4.9414,-1.1198,0.1651,0.5909,49.28015064,-122.98359276,0.00000000,
13.3170,-0.7885,1.8834,0.1081,1.3067,1.2772,-4.5391,-1.1198,0.1651,0.5909,49.28015064,-122.98359276,0.00000000,
13.3370,0.7134,0.3839,-0.3394,1.3067,1.2772,-4.5391,-1.1198,0.1651,0.5909,49.28015064,-122.98359276,0.00000000,
13.3560,0.7134,0.3839,-0.3394,1.3067,1.2772,-4.5391,-0.4319,2.5888,-0.6446,49.28015064,-122.98359276,0.00000000,
13.3740,0.7134,0.3839,-0.3394,2.6581,0.0300,-5.2680,-0.4319,2.5888,-0.6446,49.28015064,-122.98359276,0.00000000,
13.4120,-1.1594,1.3310,-0.1523,2.6581,0.0300,-5.2680,-0.4319,2.5888,-0.6446,49.28015064,-122.98359276,0.00000000,
13.4300,-1.1594,1.3310,-0.1523,2.6581,0.0300,-5.2680,1.0513,0.0251,0.4027,49.28015064,-122.98359276,0.00000000,
13.4500,-1.1594,1.3310,-0.1523,-8.2066,5.1173,1.3826,1.0513,0.0251,0.4027,49.28015064,-122.98359276,0.00000000,
13.4680,-0.1221,0.8018,0.3142,-8.2066,5.1173,1.3826,1.0513,0.0251,0.4027,49.28015064,-122.98359276,0.00000000,
13.4880,-0.1221,0.8018,0.3142,-8.2066,5.1173,1.3826,1.8276,0.6131,-0.2472,49.28015064,-122.98359276,0.00000000,
13.5070,-0.1221,0.8018,0.3142,3.1070,-2.3942,4.6866,1.8276,0.6131,-0.2472,49.28015064,-122.98359276,0.00000000,
13.5480,-0.3043,0.6271,0.2031,3.1070,-2.3942,4.6866,1.8276,0.6131,-0.2472,49.28015064,-122.98359276,0.00000000,
13.5650,-0.3043,0.6271,0.2031,3.1070,-2.3942,4.6866,1.3939,0.5265,-0.0071,49.28015064,-122.98359276,0.00000000,
13.5830,-0.3043,0.6271,0.2031,-2.6155,-1.8361,2.8826,1.3939,0.5265,-0.0071,49.28015064,-122.98359276,0.00000000,
13.6020,-0.1549,0.7071,0.3702,-2.6155,-1.8361,2.8826,1.3939,0.5265,-0.0071,49.28015064,-122.98359276,0.00000000,
13.6210,-0.1549,0.7071,0.3702,-2.6155,-1.8361,2.8826,1.0059,0.9812,0.4054,49.28015064,-122.98359276,0.00000000,
13.6410,-0.1549,0.7071,0.3702,1.2170,-4.3281,5.5874,1.0059,0.9812,0.4054,49.28015064,-122.98359276,0.00000000,
13.6790,-0.2390,0.8618,0.0915,1.2170,-4.3281,5.5874,1.0059,0.9812,0.4054,49.28015064,-122.98359276,0.00000000,
13.6960,-0.2390,0.8618,0.0915,1.2170,-4.3281,5.5874,-0.2818,0.6533,0.9468,49.28015064,-122.98359276,0.00000000,
13.7160,-0.2390,0.8618,0.0915,-1.1208,-1.8363,3.7657,-0.2818,0.6533,0.9468,49.28015064,-122.98359276,0.00000000,
13.7370,-0.7160,1.8857,-0.3828,-1.1208,-1.8363,3.7657,-0.2818,0.6533,0.9468,49.28015064,-122.98359276,0.00000000,
13.7550,-0.7160,1.8857,-0.3828,-1.1208,-1.8363,3.7657,-2.0706,-1.5593,-0.1676,49.28015064,-122.98359276,0.00000000,
13.7740,-0.7160,1.8857,-0.3828,-3.9244,5.6693,-1.6783,-2.0706,-1.5593,-0.1676,49.28015064,-122.98359276,0.00000000,
13.8110,-0.3419,1.8625,0.0798,-3.9244,5.6693,-1.6783,-2.0706,-1.5593,-0.1676,49.28015064,-122.98359276,0.00000000,
13.8310,-0.3419,1.8625,0.0798,-3.9244,5.6693,-1.6783,-2.3982,-1.6513,-0.5553,49.28015064,-122.98359276,0.00000000,
13.8510,-0.3419,1.8625,0.0798,-2.4032,9.5271,-2.7014,-2.3982,-1.6513,-0.5553,49.28015064,-122.98359276,0.00000000,
13.8690,-0.2157,1.3518,-0.1136,-2.4032,9.5271,-2.7014,-2.3982,-1.6513,-0.5553,49.28015064,-122.98359276,0.00000000,
13.8880,-0.2157,1.3518,-0.1136,-2.4032,9.5271,-2.7014,-1.3561,-2.2248,-0.3451,49.28015064,-122.98359276,0.00000000,
13.9070,-0.2157,1.3518,-0.1136,-2.9027,6.0407,-2.8546,-1.3561,-2.2248,-0.3451,49.28015064,-122.98359276,0.00000000,
13.9470,0.0681,0.4440,0.0628,-2.9027,6.0407,-2.8546,-1.3561,-2.2248,-0.3451,49.28015064,-122.98359276,0.00000000,
13.9630,0.0681,0.4440,0.0628,-2.9027,6.0407,-2.8546,-0.0635,-0.8605,-0.3197,49.28015064,-122.98359276,0.00000000,
13.9830,0.0681,0.4440,0.0628,1.9986,-1.0691,-3.1642,-0.0635,-0.8605,-0.3197,49.28015064,-122.98359276,0.00000000,
14.0010,0.1757,-0.0240,-0.0700,1.9986,-1.0691,-3.1642,-0.0635,-0.8605,-0.3197,49.28015064,-122.98359276,0.00000000,
14.0200,0.1757,-0.0240,-0.0700,1.9986,-1.0691,-3.1642,1.4946,-0.3369,-0.2851,49.28015064,-122.98359276,0.00000000,
14.0390,0.1757,-0.0240,-0.0700,3.8272,-8.2010,-0.3051,1.4946,-0.3369,-0.2851,49.28015064,-122.98359276,0.00000000,
14.0770,-0.0813,0.9145,0.4983,3.8272,-8.2010,-0.3051,1.4946,-0.3369,-0.2851,49.28015064,-122.98359276,0.00000000,
14.0960,-0.0813,0.9145,0.4983,3.8272,-8.2010,-0.3051,0.2748,0.3777,-0.1484,49.28015064,-122.98359276,0.00000000,
14.1160,-0.0813,0.9145,0.4983,2.1965,-8.1030,-0.2136,0.2748,0.3777,-0.1484,49.28015064,-122.98359276,0.00000000,
14.1350,-0.0029,0.6881,0.2574,2.1965,-8.1030,-0.2136,0.2748,0.3777,-0.1484,49.28015064,-122.98359276,0.00000000,
14.1530,-0.0029,0.6881,0.2574,2.1965,-8.1030,-0.2136,0.2034,0.6407,0.0107,49.28015064,-122.98359276,0.00000000,
14.1770,-0.0029,0.6881,0.2574,1.7351,4.2393,5.8027,0.2034,0.6407,0.0107,49.28015064,-122.98359276,0.00000000,
14.2100,-0.5628,2.2615,0.1377,1.7351,4.2393,5.8027,0.2034,0.6407,0.0107,49.28015064,-122.98359276,0.00000000,
14.2310,-0.5628,2.2615,0.1377,1.7351,4.2393,5.8027,-1.1149,-0.4449,0.8078,49.28015064,-122.98359276,0.00000000,
14.2490,-0.5628,2.2615,0.1377,-2.3213,4.0285,-4.4468,-1.1149,-0.4449,0.8078,49.28015064,-122.98359276,0.00000000,
14.2700,0.5735,0.2983,-0.2155,-2.3213,4.0285,-4.4468,-1.1149,-0.4449,0.8078,49.28015064,-122.98359276,0.00000000,
14.2870,0.5735,0.2983,-0.2155,-2.3213,4.0285,-4.4468,-0.2338,2.1946,-0.9544,49.28015064,-122.98359276,0.00000000,
14.3060,0.5735,0.2983,-0.2155,6.2193,-3.4772,-6.4871,-0.2338,2.1946,-0.9544,49.28010439,-122.98361137,3.21000004,
14.3450,-0.9744,1.2685,-0.2124,6.2193,-3.4772,-6.4871,-0.2338,2.1946,-0.9544,49.28010439,-122.98361137,3.21000004,
14.3630,-0.9744,1.2685,-0.2124,6.2193,-3.4772,-6.4871,1.2455,-0.0388,0.3401,49.28010439,-122.98361137,3.21000004,
14.3820,-0.9744,1.2685,-0.2124,-8.9989,6.7622,2.2270,1.2455,-0.0388,0.3401,49.28010439,-122.98361137,3.21000004,
14.4110,-0.3231,0.9551,0.2642,-8.9989,6.7622,2.2270,1.2455,-0.0388,0.3401,49.28010439,-122.98361137,3.21000004,
14.4300,-0.3231,0.9551,0.2642,-8.9989,6.7622,2.2270,1.8834,0.3962,-0.1825,49.28010439,-122.98361137,3.21000004,
14.4490,-0.3231,0.9551,0.2642,2.7363,-2.0963,4.6150,1.8834,0.3962,-0.1825,49.28010439,-122.98361137,3.21000004,
14.4680,-0.0939,0.4549,0.2947,2.7363,-2.0963,4.6150,1.8834,0.3962,-0.1825,49.28010439,-122.98361137,3.21000004,
14.4870,-0.0939,0.4549,0.2947,2.7363,-2.0963,4.6150,1.4520,0.6971,-0.0860,49.28010439,-122.98361137,3.21000004,
14.5060,-0.0939,0.4549,0.2947,-1.8452,-1.8480,2.7523,1.4520,0.6971,-0.0860,49.28010439,-122.98361137,3.21000004,
14.5450,-0.2998,0.7490,0.2790,-1.8452,-1.8480,2.7523,1.4520,0.6971,-0.0860,49.28010439,-122.98361137,3.21000004,
14.5630,-0.2998,0.7490,0.2790,-1.8452,-1.8480,2.7523,1.0083,0.5332,0.1954,49.28010439,-122.98361137,3.21000004,
14.5820,-0.2998,0.7490,0.2790,0.5909,-3.6429,5.7784,1.0083,0.5332,0.1954,49.28010439,-122.98361137,3.21000004,
14.6010,-0.1644,0.7354,0.1773,0.5909,-3.6429,5.7784,1.0083,0.5332,0.1954,49.28010439,-122.98361137,3.21000004,
14.6200,-0.1644,0.7354,0.1773,0.5909,-3.6429,5.7784,-0.2803,0.3826,0.7199,49.28010439,-122.98361137,3.21000004,
14.6400,-0.1644,0.7354,0.1773,-0.6940,-3.2445,3.5419,-0.2803,0.3826,0.7199,49.28010439,-122.98361137,3.21000004,
14.6780,-0.5733,1.8900,-0.4989,-0.6940,-3.2445,3.5419,-0.2803,0.3826,0.7199,49.28010439,-122.98361137,3.21000004,
14.6970,-0.5733,1.8900,-0.4989,-0.6940,-3.2445,3.5419,-2.0764,-0.8781,-0.4259,49.28010439,-122.98361137,3.21000004,
14.7150,-0.5733,1.8900,-0.4989,-1.0610,5.6736,-1.5339,-2.0764,-0.8781,-0.4259,49.28010439,-122.98361137,3.21000004,
14.7360,-0.2217,1.7892,0.2743,-1.0610,5.6736,-1.5339,-2.0764,-0.8781,-0.4259,49.28010439,-122.98361137,3.21000004,
14.7530,-0.2217,1.7892,0.2743,-1.0610,5.6736,-1.5339,-2.2996,-0.8828,-0.3514,49.28010439,-122.98361137,3.21000004,
14.7730,-0.2217,1.7892,0.2743,-1.2050,8.3276,-2.5942,-2.2996,-0.8828,-0.3514,49.28010439,-122.98361137,3.21000004,
14.8110,-0.4157,1.3690,-0.1510,-1.2050,8.3276,-2.5942,-2.2996,-0.8828,-0.3514,49.28010439,-122.98361137,3.21000004,
14.8310,-0.4157,1.3690,-0.1510,-1.2050,8.3276,-2.5942,-1.4446,-1.8253,-0.0428,49.28010439,-122.98361137,3.21000004,
14.8490,-0.4157,1.3690,-0.1510,-3.4159,5.1186,-1.7913,-1.4446,-1.8253,-0.0428,49.28010439,-122.98361137,3.21000004,
14.8680,0.1419,0.7087,0.3421,-3.4159,5.1186,-1.7913,-1.4446,-1.8253,-0.0428,49.28010439,-122.98361137,3.21000004,
14.8860,0.1419,0.7087,0.3421,-3.4159,5.1186,-1.7913,-0.3270,-0.7439,-0.2535,49.28010439,-122.98361137,3.21000004,
14.9070,0.1419,0.7087,0.3421,1.6346,1.9740,-2.4178,-0.3270,-0.7439,-0.2535,49.28010439,-122.98361137,3.21000004,
14.9440,0.1080,0.1255,-0.1534,1.6346,1.9740,-2.4178,-0.3270,-0.7439,-0.2535,49.28010439,-122.98361137,3.21000004,
14.9630,0.1080,0.1255,-0.1534,1.6346,1.9740,-2.4178,0.9532,0.1354,-0.1736,49.28010439,-122.98361137,3.21000004,
14.9820,0.1080,0.1255,-0.1534,3.8311,-6.4987,-0.8089,0.9532,0.1354,-0.1736,49.28010439,-122.98361137,3.21000004,
15.0010,-0.0113,0.3185,0.1966,3.8311,-6.4987,-0.8089,0.9532,0.1354,-0.1736,49.28010439,-122.98361137,3.21000004,
15.0200,-0.0113,0.3185,0.1966,3.8311,-6.4987,-0.8089,1.1652,-0.1433,-0.0230,49.28010439,-122.98361137,3.21000004,
15.0390,-0.0113,0.3185,0.1966,2.7014,-9.4243,-0.2577,1.1652,-0.1433,-0.0230,49.28010439,-122.98361137,3.21000004,
15.0800,-0.0196,1.2980,0.6801,2.7014,-9.4243,-0.2577,1.1652,-0.1433,-0.0230,49.28010439,-122.98361137,3.21000004,
15.0960,-0.0196,1.2980,0.6801,2.7014,-9.4243,-0.2577,0.1268,0.3208,0.3286,49.28010439,-122.98361137,3.21000004,
15.1160,-0.0196,1.2980,0.6801,-0.5079,3.4965,6.5584,0.1268,0.3208,0.3286,49.28010439,-122.98361137,3.21000004,
15.1350,-0.4719,1.6688,0.1477,-0.5079,3.4965,6.5584,0.1268,0.3208,0.3286,49.28010439,-122.98361137,3.21000004,
15.1530,-0.4719,1.6688,0.1477,-0.5079,3.4965,6.5584,-0.8660,0.1307,0.1507,49.28010439,-122.98361137,3.21000004,
15.1720,-0.4719,1.6688,0.1477,3.7266,2.9897,-4.0690,-0.8660,0.1307,0.1507,49.28010439,-122.98361137,3.21000004,
15.2110,0.2222,0.7309,-0.3252,3.7266,2.9897,-4.0690,-0.8660,0.1307,0.1507,49.28010439,-122.98361137,3.21000004,
15.2300,0.2222,0.7309,-0.3252,3.7266,2.9897,-4.0690,-0.0343,1.7343,-0.2851,49.28010439,-122.98361137,3.21000004,
15.2520,0.2222,0.7309,-0.3252,0.0359,-2.9556,-4.2741,-0.0343,1.7343,-0.2851,49.28010439,-122.98361137,3.21000004,
15.2670,-0.6416,1.2198,-0.1512,0.0359,-2.9556,-4.2741,-0.0343,1.7343,-0.2851,49.28010439,-122.98361137,3.21000004,
15.2860,-0.6416,1.2198,-0.1512,0.0359,-2.9556,-4.2741,1.1190,0.0796,0.2176,49.28010439,-122.98361137,3.21000004,
15.3060,-0.6416,1.2198,-0.1512,-5.9581,6.6688,0.5279,1.1190,0.0796,0.2176,49.28009825,-122.98362752,1.49000001,
15.3430,-0.3001,0.9419,0.2038,-5.9581,6.6688,0.5279,1.1190,0.0796,0.2176,49.28009825,-122.98362752,1.49000001,
15.3620,-0.3001,0.9419,0.2038,-5.9581,6.6688,0.5279,1.6998,0.7892,-0.4174,49.28009825,-122.98362752,1.49000001,
15.3810,-0.3001,0.9419,0.2038,2.9300,-0.5572,4.4093,1.6998,0.7892,-0.4174,49.28009825,-122.98362752,1.49000001,
15.4100,-0.2424,0.4893,0.1931,2.9300,-0.5572,4.4093,1.6998,0.7892,-0.4174,49.28009825,-122.98362752,1.49000001,
15.4290,-0.2424,0.4893,0.1931,2.9300,-0.5572,4.4093,1.0378,0.3080,0.0261,49.28009825,-122.98362752,1.49000001,
15.4480,-0.2424,0.4893,0.1931,-2.8093,-2.3609,2.3703,1.0378,0.3080,0.0261,49.28009825,-122.98362752,1.49000001,
15.4670,-0.1804,0.6505,0.3174,-2.8093,-2.3609,2.3703,1.0378,0.3080,0.0261,49.28009825,-122.98362752,1.49000001,
15.4870,-0.1804,0.6505,0.3174,-2.8093,-2.3609,2.3703,0.6113,0.5000,0.1706,49.28009825,-122.98362752,1.49000001,
15.5060,-0.1804,0.6505,0.3174,1.0295,-4.3640,5.0160,0.6113,0.5000,0.1706,49.28009825,-122.98362752,1.49000001,
15.5430,-0.1734,0.9083,0.1488,1.0295,-4.3640,5.0160,0.6113,0.5000,0.1706,49.28009825,-122.98362752,1.49000001,
15.5630,-0.1734,0.9083,0.1488,1.0295,-4.3640,5.0160,-0.7461,0.7379,0.5300,49.28009825,-122.98362752,1.49000001,
15.5800,-0.1734,0.9083,0.1488,0.1082,-2.0050,4.1496,-0.7461,0.7379,0.5300,49.28009825,-122.98362752,1.49000001,
15.6010,-0.5606,1.9208,-0.0883,0.1082,-2.0050,4.1496,-0.7461,0.7379,0.5300,49.28009825,-122.98362752,1.49000001,
15.6190,-0.5606,1.9208,-0.0883,0.1082,-2.0050,4.1496,-2.3134,-0.7996,-0.3530,49.28009825,-122.98362752,1.49000001,
15.6390,-0.5606,1.9208,-0.0883,-3.4029,6.8021,-1.6766,-2.3134,-0.7996,-0.3530,49.28009825,-122.98362752,1.49000001,
15.6760,-0.4425,1.6125,0.1794,-3.4029,6.8021,-1.6766,-2.3134,-0.7996,-0.3530,49.28009825,-122.98362752,1.49000001,
15.6960,-0.4425,1.6125,0.1794,-3.4029,6.8021,-1.6766,-1.9322,-1.0954,-0.2345,49.28009825,-122.98362752,1.49000001,
15.7140,-0.4425,1.6125,0.1794,-1.2016,7.7945,-1.2793,-1.9322,-1.0954,-0.2345,49.28009825,-122.98362752,1.49000001,
15.7330,-0.2039,1.1676,-0.1346,-1.2016,7.7945,-1.2793,-1.9322,-1.0954,-0.2345,49.28009825,-122.98362752,1.49000001,
15.7530,-0.2039,1.1676,-0.1346,-1.2016,7.7945,-1.2793,-1.0473,-2.0969,0.1025,49.28009825,-122.98362752,1.49000001,
15.7720,-0.2039,1.1676,-0.1346,-2.7894,3.4942,-2.9031,-1.0473,-2.0969,0.1025,49.28009825,-122.98362752,1.49000001,
15.8100,0.2203,0.4683,0.1435,-2.7894,3.4942,-2.9031,-1.0473,-2.0969,0.1025,49.28009825,-122.98362752,1.49000001,
15.8300,0.2203,0.4683,0.1435,-2.7894,3.4942,-2.9031,-0.1827,-0.0641,-0.1949,49.28009825,-122.98362752,1.49000001,
15.8480,0.2203,0.4683,0.1435,2.2718,-1.9197,-2.8897,-0.1827,-0.0641,-0.1949,49.28009825,-122.98362752,1.49000001,
15.8670,0.0015,0.1897,-0.1343,2.2718,-1.9197,-2.8897,-0.1827,-0.0641,-0.1949,49.28009825,-122.98362752,1.49000001,
15.8880,0.0015,0.1897,-0.1343,2.2718,-1.9197,-2.8897,0.7287,0.9201,-0.4712,49.28009825,-122.98362752,1.49000001,
15.9060,0.0015,0.1897,-0.1343,4.6632,-6.4851,-1.6993,0.7287,0.9201,-0.4712,49.28009825,-122.98362752,1.49000001,
15.9430,-0.3642,0.7271,0.8674,4.6632,-6.4851,-1.6993,0.7287,0.9201,-0.4712,49.28009825,-122.98362752,1.49000001,
15.9620,-0.3642,0.7271,0.8674,4.6632,-6.4851,-1.6993,0.3250,-0.9148,-0.1736,49.28009825,-122.98362752,1.49000001,
15.9820,-0.3642,0.7271,0.8674,-0.8174,-7.0703,-0.3345,0.3250,-0.9148,-0.1736,49.28009825,-122.98362752,1.49000001,
16.0000,0.2141,1.1730,0.3418,-0.8174,-7.0703,-0.3345,0.3250,-0.9148,-0.1736,49.28009825,-122.98362752,1.49000001,
16.0200,0.2141,1.1730,0.3418,-0.8174,-7.0703,-0.3345,-0.2068,0.0597,0.0915,49.28009825,-122.98362752,1.49000001,
16.0380,0.2141,1.1730,0.3418,0.9725,3.1239,8.2590,-0.2068,0.0597,0.0915,49.28009825,-122.98362752,1.49000001,
16.0780,-0.2683,1.4086,0.1922,0.9725,3.1239,8.2590,-0.2068,0.0597,0.0915,49.28009825,-122.98362752,1.49000001,
16.0960,-0.2683,1.4086,0.1922,0.9725,3.1239,8.2590,-1.2074,0.4506,0.5549,49.28009825,-122.98362752,1.49000001,
16.1150,-0.2683,1.4086,0.1922,1.0578,5.9350,-4.6026,-1.2074,0.4506,0.5549,49.28009825,-122.98362752,1.49000001,
16.1330,-0.2581,1.1947,-0.2884,1.0578,5.9350,-4.6026,-1.2074,0.4506,0.5549,49.28009825,-122.98362752,1.49000001,
16.1530,-0.2581,1.1947,-0.2884,1.0578,5.9350,-4.6026,-0.3967,1.1971,-0.3500,49.28009825,-122.98362752,1.49000001,
16.1710,-0.2581,1.1947,-0.2884,4.7803,0.2471,-4.5599,-0.3967,1.1971,-0.3500,49.28009825,-122.98362752,1.49000001,
16.2100,-0.2827,0.9857,0.4063,4.7803,0.2471,-4.5599,-0.3967,1.1971,-0.3500,49.28009825,-122.98362752,1.49000001,
16.2290,-0.2827,0.9857,0.4063,4.7803,0.2471,-4.5599,0.5629,0.6335,0.7211,49.28009825,-122.98362752,1.49000001,
16.2470,-0.2827,0.9857,0.4063,-6.8175,2.6768,0.5738,0.5629,0.6335,0.7211,49.28009825,-122.98362752,1.49000001,
16.2690,-0.3408,0.8419,0.2048,-6.8175,2.6768,0.5738,0.5629,0.6335,0.7211,49.28009825,-122.98362752,1.49000001,
16.2890,-0.3408,0.8419,0.2048,-6.8175,2.6768,0.5738,0.9123,0.8199,0.0730,49.28009825,-122.98362752,1.49000001,
16.3060,-0.3408,0.8419,0.2048,0.9763,-1.2040,2.8628,0.9123,0.8199,0.0730,49.28007993,-122.98363763,1.98000002,
16.3420,-0.2719,0.6844,0.4390,0.9763,-1.2040,2.8628,0.9123,0.8199,0.0730,49.28007993,-122.98363763,1.98000002,
16.3620,-0.2719,0.6844,0.4390,0.9763,-1.2040,2.8628,0.8163,0.1152,-0.0582,49.28007993,-122.98363763,1.98000002,
16.3800,-0.2719,0.6844,0.4390,-0.5357,-2.8396,1.4247,0.8163,0.1152,-0.0582,49.28007993,-122.98363763,1.98000002,
16.4090,-0.0200,0.8714,0.5514,-0.5357,-2.8396,1.4247,0.8163,0.1152,-0.0582,49.28007993,-122.98363763,1.98000002,
16.4280,-0.0200,0.8714,0.5514,-0.5357,-2.8396,1.4247,0.0004,0.2482,0.6600,49.28007993,-122.98363763,1.98000002,
16.4480,-0.0200,0.8714,0.5514,-0.2183,-1.9398,4.3504,0.0004,0.2482,0.6600,49.28007993,-122.98363763,1.98000002,
16.4670,-0.0463,0.9712,0.3123,-0.2183,-1.9398,4.3504,0.0004,0.2482,0.6600,49.28007993,-122.98363763,1.98000002,
16.4860,-0.0463,0.9712,0.3123,-0.2183,-1.9398,4.3504,-1.8540,0.0736,0.7593,49.28007993,-122.98363763,1.98000002,
16.5060,-0.0463,0.9712,0.3123,0.7585,0.5192,-0.7445,-1.8540,0.0736,0.7593,49.28007993,-122.98363763,1.98000002,
16.5430,-0.4464,1.6316,0.1780,0.7585,0.5192,-0.7445,-1.8540,0.0736,0.7593,49.28007993,-122.98363763,1.98000002,
16.5610,-0.4464,1.6316,0.1780,0.7585,0.5192,-0.7445,-1.7573,0.3464,-0.1107,49.28007993,-122.98363763,1.98000002,
16.5800,-0.4464,1.6316,0.1780,-2.3112,4.9366,0.2139,-1.7573,0.3464,-0.1107,49.28007993,-122.98363763,1.98000002,
16.6000,-0.3987,1.1303,0.5367,-2.3112,4.9366,0.2139,-1.7573,0.3464,-0.1107,49.28007993,-122.98363763,1.98000002,
16.6200,-0.3987,1.1303,0.5367,-2.3112,4.9366,0.2139,-0.9272,-0.8078,-0.4078,49.28007993,-122.98363763,1.98000002,
16.6370,-0.3987,1.1303,0.5367,-2.1270,4.5518,-1.5004,-0.9272,-0.8078,-0.4078,49.28007993,-122.98363763,1.98000002,
16.6780,-0.1700,0.8337,0.1702,-2.1270,4.5518,-1.5004,-0.9272,-0.8078,-0.4078,49.28007993,-122.98363763,1.98000002,
16.6960,-0.1700,0.8337,0.1702,-2.1270,4.5518,-1.5004,0.5338,-1.2985,0.4057,49.28007993,-122.98363763,1.98000002,
16.7140,-0.1700,0.8337,0.1702,-3.6478,-0.2173,0.7813,0.5338,-1.2985,0.4057,49.28007993,-122.98363763,1.98000002,
16.7330,0.2655,0.3322,0.3171,-3.6478,-0.2173,0.7813,0.5338,-1.2985,0.4057,49.28007993,-122.98363763,1.98000002,
16.7510,0.2655,0.3322,0.3171,-3.6478,-0.2173,0.7813,0.7399,0.5461,-0.0605,49.28007993,-122.98363763,1.98000002,
16.7700,0.2655,0.3322,0.3171,3.8582,-3.3099,-1.9858,0.7399,0.5461,-0.0605,49.28007993,-122.98363763,1.98000002,
16.8090,-0.0105,0.5071,0.2561,3.8582,-3.3099,-1.9858,0.7399,0.5461,-0.0605,49.28007993,-122.98363763,1.98000002,
16.8290,-0.0105,0.5071,0.2561,3.8582,-3.3099,-1.9858,1.2153,-0.2592,-0.3933,49.28007993,-122.98363763,1.98000002,
16.8460,-0.0105,0.5071,0.2561,2.3351,-5.9105,0.9271,1.2153,-0.2592,-0.3933,49.28007993,-122.98363763,1.98000002,
16.8650,-0.2087,1.0008,0.6269,2.3351,-5.9105,0.9271,1.2153,-0.2592,-0.3933,49.28007993,-122.98363763,1.98000002,
16.8850,-0.2087,1.0008,0.6269,2.3351,-5.9105,0.9271,-0.9503,-0.4297,-0.2266,49.28007993,-122.98363763,1.98000002,
16.9040,-0.2087,1.0008,0.6269,-0.8296,-1.2368,1.1174,-0.9503,-0.4297,-0.2266,49.28007993,-122.98363763,1.98000002,
16.9410,0.1108,0.8275,0.8361,-0.8296,-1.2368,1.1174,-0.9503,-0.4297,-0.2266,49.28007993,-122.98363763,1.98000002,
16.9610,0.1108,0.8275,0.8361,-0.8296,-1.2368,1.1174,-0.5003,-0.2089,-0.7319,49.28007993,-122.98363763,1.98000002,
16.9790,0.1108,0.8275,0.8361,1.9624,0.2900,3.4291,-0.5003,-0.2089,-0.7319,49.28007993,-122.98363763,1.98000002,
16.9990,-0.1909,1.3258,0.2372,1.9624,0.2900,3.4291,-0.5003,-0.2089,-0.7319,49.28007993,-122.98363763,1.98000002,
17.0180,-0.1909,1.3258,0.2372,1.9624,0.2900,3.4291,-0.8230,-0.4357,0.1739,49.28007993,-122.98363763,1.98000002,
17.0370,-0.1909,1.3258,0.2372,1.4168,3.9386,3.3728,-0.8230,-0.4357,0.1739,49.28007993,-122.98363763,1.98000002,
17.0770,-0.1475,1.2534,0.2333,1.4168,3.9386,3.3728,-0.8230,-0.4357,0.1739,49.28007993,-122.98363763,1.98000002,
17.0940,-0.1475,1.2534,0.2333,1.4168,3.9386,3.3728,0.1807,0.4145,0.0966,49.28007993,-122.98363763,1.98000002,
17.1130,-0.1475,1.2534,0.2333,-0.4666,1.7061,-4.1190,0.1807,0.4145,0.0966,49.28007993,-122.98363763,1.98000002,
17.1310,-0.2437,1.1411,0.2757,-0.4666,1.7061,-4.1190,0.1807,0.4145,0.0966,49.28007993,-122.98363763,1.98000002,
17.1510,-0.2437,1.1411,0.2757,-0.4666,1.7061,-4.1190,0.8759,1.1044,0.4403,49.28007993,-122.98363763,1.98000002,
17.1700,-0.2437,1.1411,0.2757,-1.2556,2.4443,-1.0021,0.8759,1.1044,0.4403,49.28007993,-122.98363763,1.98000002,
17.2080,-0.0946,1.0405,0.3536,-1.2556,2.4443,-1.0021,0.8759,1.1044,0.4403,49.28007993,-122.98363763,1.98000002,
17.2270,-0.0946,1.0405,0.3536,-1.2556,2.4443,-1.0021,1.4139,0.9833,0.3539,49.28007993,-122.98363763,1.98000002,
17.2510,-0.0946,1.0405,0.3536,-0.6474,2.3615,1.5354,1.4139,0.9833,0.3539,49.28007993,-122.98363763,1.98000002,
17.2670,-0.1663,0.6457,0.3347,-0.6474,2.3615,1.5354,1.4139,0.9833,0.3539,49.28007993,-122.98363763,1.98000002,
17.2840,-0.1663,0.6457,0.3347,-0.6474,2.3615,1.5354,0.7057,0.7695,0.3577,49.28007216,-122.98365099,1.28999996,
17.3030,-0.1663,0.6457,0.3347,-0.2307,-1.7990,1.2096,0.7057,0.7695,0.3577,49.28007216,-122.98365099,1.28999996,
17.3410,-0.2270,0.6421,0.3518,-0.2307,-1.7990,1.2096,0.7057,0.7695,0.3577,49.28007216,-122.98365099,1.28999996,
17.3600,-0.2270,0.6421,0.3518,-0.2307,-1.7990,1.2096,0.4846,0.5700,0.6310,49.28007216,-122.98365099,1.28999996,
17.3790,-0.2270,0.6421,0.3518,-0.6082,-4.1518,1.1808,0.4846,0.5700,0.6310,49.28007216,-122.98365099,1.28999996,
17.4080,-0.0637,0.7944,0.4649,-0.6082,-4.1518,1.1808,0.4846,0.5700,0.6310,49.28007216,-122.98365099,1.28999996,
17.4280,-0.0637,0.7944,0.4649,-0.6082,-4.1518,1.1808,-0.0076,0.3403,0.4516,49.28007216,-122.98365099,1.28999996,
17.4460,-0.0637,0.7944,0.4649,-0.6219,-2.8575,3.1178,-0.0076,0.3403,0.4516,49.28007216,-122.98365099,1.28999996,
17.4650,-0.2458,1.1115,0.4237,-0.6219,-2.8575,3.1178,-0.0076,0.3403,0.4516,49.28007216,-122.98365099,1.28999996,
17.4850,-0.2458,1.1115,0.4237,-0.6219,-2.8575,3.1178,-1.7601,0.1016,0.2717,49.28007216,-122.98365099,1.28999996,
17.5020,-0.2458,1.1115,0.4237,-0.3209,-0.3170,0.5442,-1.7601,0.1016,0.2717,49.28007216,-122.98365099,1.28999996,
17.5410,-0.2344,1.4520,0.3736,-0.3209,-0.3170,0.5442,-1.7601,0.1016,0.2717,49.28007216,-122.98365099,1.28999996,
17.5600,-0.2344,1.4520,0.3736,-0.3209,-0.3170,0.5442,-1.8790,-0.4175,-0.6844,49.28007216,-122.98365099,1.28999996,
17.5790,-0.2344,1.4520,0.3736,-1.5841,3.8558,-0.0658,-1.8790,-0.4175,-0.6844,49.28007216,-122.98365099,1.28999996,
17.5980,-0.3636,0.9766,0.5593,-1.5841,3.8558,-0.0658,-1.8790,-0.4175,-0.6844,49.28007216,-122.98365099,1.28999996,
17.6170,-0.3636,0.9766,0.5593,-1.5841,3.8558,-0.0658,-1.1990,-0.8695,-0.5916,49.28007216,-122.98365099,1.28999996,
17.6360,-0.3636,0.9766,0.5593,-1.7912,4.7209,-1.0132,-1.1990,-0.8695,-0.5916,49.28007216,-122.98365099,1.28999996,
17.6800,-0.0642,1.0424,0.3838,-1.7912,4.7209,-1.0132,-1.1990,-0.8695,-0.5916,49.28007216,-122.98365099,1.28999996,
17.6930,-0.0642,1.0424,0.3838,-1.7912,4.7209,-1.0132,-0.2125,-1.7045,-0.7820,49.28007216,-122.98365099,1.28999996,
17.7120,-0.0642,1.0424,0.3838,-1.8235,1.0737,0.8571,-0.2125,-1.7045,-0.7820,49.28007216,-122.98365099,1.28999996,
17.7310,0.1020,0.7003,0.3871,-1.8235,1.0737,0.8571,-0.2125,-1.7045,-0.7820,49.28007216,-122.98365099,1.28999996,
17.7500,0.1020,0.7003,0.3871,-1.8235,1.0737,0.8571,0.4489,-0.3569,-0.7768,49.28007216,-122.98365099,1.28999996,
17.7690,0.1020,0.7003,0.3871,2.3826,0.1979,-0.9326,0.4489,-0.3569,-0.7768,49.28007216,-122.98365099,1.28999996,
17.8080,0.0773,0.4979,0.3464,2.3826,0.1979,-0.9326,0.4489,-0.3569,-0.7768,49.28007216,-122.98365099,1.28999996,
17.8270,0.0773,0.4979,0.3464,2.3826,0.1979,-0.9326,1.0736,1.1899,-0.1196,49.28007216,-122.98365099,1.28999996,
17.8460,0.0773,0.4979,0.3464,2.7749,-4.0199,0.3330,1.0736,1.1899,-0.1196,49.28007216,-122.98365099,1.28999996,
17.8660,-0.2158,0.5572,0.5825,2.7749,-4.0199,0.3330,1.0736,1.1899,-0.1196,49.28007216,-122.98365099,1.28999996,
17.8840,-0.2158,0.5572,0.5825,2.7749,-4.0199,0.3330,0.6530,0.4950,-0.1242,49.28007216,-122.98365099,1.28999996,
17.9040,-0.2158,0.5572,0.5825,1.4699,-4.1955,-0.2605,0.6530,0.4950,-0.1242,49.28007216,-122.98365099,1.28999996,
17.9420,-0.2805,0.9673,0.8692,1.4699,-4.1955,-0.2605,0.6530,0.4950,-0.1242,49.28007216,-122.98365099,1.28999996,
17.9620,-0.2805,0.9673,0.8692,1.4699,-4.1955,-0.2605,-0.2530,-0.2201,-0.1031,49.28007216,-122.98365099,1.28999996,
17.9800,-0.2805,0.9673,0.8692,-2.1855,0.0788,5.0680,-0.2530,-0.2201,-0.1031,49.28007216,-122.98365099,1.28999996,
18.0000,-0.1236,0.6987,0.6440,-2.1855,0.0788,5.0680,-0.2530,-0.2201,-0.1031,49.28007216,-122.98365099,1.28999996,
18.0180,-0.1236,0.6987,0.6440,-2.1855,0.0788,5.0680,-0.0670,-0.1822,0.1132,49.28007216,-122.98365099,1.28999996,
18.0380,-0.1236,0.6987,0.6440,0.7724,-2.9207,2.8312,-0.0670,-0.1822,0.1132,49.28007216,-122.98365099,1.28999996,
18.0760,0.1954,1.2441,0.0067,0.7724,-2.9207,2.8312,-0.0670,-0.1822,0.1132,49.28007216,-122.98365099,1.28999996,
18.0940,0.1954,1.2441,0.0067,0.7724,-2.9207,2.8312,-0.5157,-0.4053,0.3811,49.28007216,-122.98365099,1.28999996,
18.1130,0.1954,1.2441,0.0067,0.1378,4.8439,-0.8902,-0.5157,-0.4053,0.3811,49.28007216,-122.98365099,1.28999996,
18.1320,-0.2808,1.2504,0.2287,0.1378,4.8439,-0.8902,-0.5157,-0.4053,0.3811,49.28007216,-122.98365099,1.28999996,
18.1510,-0.2808,1.2504,0.2287,0.1378,4.8439,-0.8902,0.1220,1.1273,0.1404,49.28007216,-122.98365099,1.28999996,
18.1700,-0.2808,1.2504,0.2287,2.6430,1.5822,-1.7745,0.1220,1.1273,0.1404,49.28007216,-122.98365099,1.28999996,
18.2100,-0.2097,1.0932,0.3035,2.6430,1.5822,-1.7745,0.1220,1.1273,0.1404,49.28007216,-122.98365099,1.28999996,
18.2290,-0.2097,1.0932,0.3035,2.6430,1.5822,-1.7745,0.2235,1.1899,0.3205,49.28007216,-122.98365099,1.28999996,
18.2460,-0.2097,1.0932,0.3035,-0.5742,2.1301,-1.7890,0.2235,1.1899,0.3205,49.28007216,-122.98365099,1.28999996,
18.2660,-0.3571,0.7254,0.4309,-0.5742,2.1301,-1.7890,0.2235,1.1899,0.3205,49.28007216,-122.98365099,1.28999996,
18.2840,-0.3571,0.7254,0.4309,-0.5742,2.1301,-1.7890,0.9739,0.5702,-0.0795,49.28007216,-122.98365099,1.28999996,
18.3020,-0.3571,0.7254,0.4309,-1.1662,-0.3972,1.0977,0.9739,0.5702,-0.0795,49.28007216,-122.98365099,1.28999996,
18.3420,-0.2963,0.5581,0.4038,-1.1662,-0.3972,1.0977,0.9739,0.5702,-0.0795,49.28007216,-122.98365099,1.28999996,
18.3610,-0.2963,0.5581,0.4038,-1.1662,-0.3972,1.0977,1.1647,0.4159,-0.2385,49.28007216,-122.98365099,1.28999996,
18.3800,-0.2963,0.5581,0.4038,-1.5808,-3.4662,1.9158,1.1647,0.4159,-0.2385,49.28007216,-122.98365099,1.28999996,
18.4080,-0.2261,0.7500,0.5757,-1.5808,-3.4662,1.9158,1.1647,0.4159,-0.2385,49.28007216,-122.98365099,1.28999996,
18.4320,-0.2261,0.7500,0.5757,-1.5808,-3.4662,1.9158,0.7563,0.9831,0.3282,49.28007216,-122.98365099,1.28999996,
18.4470,-0.2261,0.7500,0.5757,-0.0002,-2.8251,3.2322,0.7563,0.9831,0.3282,49.28007216,-122.98365099,1.28999996,
18.4670,-0.1786,0.8410,0.3476,-0.0002,-2.8251,3.2322,0.7563,0.9831,0.3282,49.28007216,-122.98365099,1.28999996,
18.4850,-0.1786,0.8410,0.3476,-0.0002,-2.8251,3.2322,-0.3242,0.2902,0.6055,49.28007216,-122.98365099,1.28999996,
18.5030,-0.1786,0.8410,0.3476,-0.5294,-2.8748,2.4899,-0.3242,0.2902,0.6055,49.28007216,-122.98365099,1.28999996,
18.5420,-0.5718,1.3429,0.4424,-0.5294,-2.8748,2.4899,-0.3242,0.2902,0.6055,49.28007216,-122.98365099,1.28999996,
18.5610,-0.5718,1.3429,0.4424,-0.5294,-2.8748,2.4899,-1.4953,-1.0968,0.5560,49.28007216,-122.98365099,1.28999996,
18.5790,-0.5718,1.3429,0.4424,-2.9276,3.9490,0.4505,-1.4953,-1.0968,0.5560,49.28007216,-122.98365099,1.28999996,
18.5990,-0.3416,1.4545,0.4276,-2.9276,3.9490,0.4505,-1.4953,-1.0968,0.5560,49.28007216,-122.98365099,1.28999996,
18.6170,-0.3416,1.4545,0.4276,-2.9276,3.9490,0.4505,-1.1857,-0.2988,-0.8632,49.28007216,-122.98365099,1.28999996,
18.6360,-0.3416,1.4545,0.4276,-1.2266,4.2996,0.6694,-1.1857,-0.2988,-0.8632,49.28007216,-122.98365099,1.28999996,
18.6820,-0.3276,1.1936,0.3855,-1.2266,4.2996,0.6694,-1.1857,-0.2988,-0.8632,49.28007216,-122.98365099,1.28999996,
18.6930,-0.3276,1.1936,0.3855,-1.2266,4.2996,0.6694,-0.3988,-1.7550,-0.4671,49.28007216,-122.98365099,1.28999996,
18.7140,-0.3276,1.1936,0.3855,-3.4824,3.3974,-0.1343,-0.3988,-1.7550,-0.4671,49.28007216,-122.98365099,1.28999996,
18.7320,0.1296,0.7954,0.2456,-3.4824,3.3974,-0.1343,-0.3988,-1.7550,-0.4671,49.28007216,-122.98365099,1.28999996,
18.7500,0.1296,0.7954,0.2456,-3.4824,3.3974,-0.1343,0.1255,-0.9676,-0.0643,49.28007216,-122.98365099,1.28999996,
18.7700,0.1296,0.7954,0.2456,1.2352,1.6486,-1.6978,0.1255,-0.9676,-0.0643,49.28007216,-122.98365099,1.28999996,
18.8090,0.1738,0.2636,0.1339,1.2352,1.6486,-1.6978,0.1255,-0.9676,-0.0643,49.28007216,-122.98365099,1.28999996,
18.8280,0.1738,0.2636,0.1339,1.2352,1.6486,-1.6978,1.2864,0.3408,0.0696,49.28007216,-122.98365099,1.28999996,
18.8460,0.1738,0.2636,0.1339,3.2006,-5.2918,-0.3901,1.2864,0.3408,0.0696,49.28007216,-122.98365099,1.28999996,
18.8660,-0.2209,0.4527,0.2808,3.2006,-5.2918,-0.3901,1.2864,0.3408,0.0696,49.28007216,-122.98365099,1.28999996,
18.8850,-0.2209,0.4527,0.2808,3.2006,-5.2918,-0.3901,1.8735,-0.3648,-0.3354,49.28007216,-122.98365099,1.28999996,
18.9030,-0.2209,0.4527,0.2808,1.6998,-7.1177,-1.6789,1.8735,-0.3648,-0.3354,49.28007216,-122.98365099,1.28999996,
18.9410,-0.1581,1.2754,0.8839,1.6998,-7.1177,-1.6789,1.8735,-0.3648,-0.3354,49.28007216,-122.98365099,1.28999996,
18.9600,-0.1581,1.2754,0.8839,1.6998,-7.1177,-1.6789,0.2193,-0.7566,-0.1572,49.28007216,-122.98365099,1.28999996,
18.9790,-0.1581,1.2754,0.8839,-3.0019,1.8200,5.8023,0.2193,-0.7566,-0.1572,49.28007216,-122.98365099,1.28999996,
18.9980,0.0325,0.4246,0.1658,-3.0019,1.8200,5.8023,0.2193,-0.7566,-0.1572,49.28007216,-122.98365099,1.28999996,
19.0160,0.0325,0.4246,0.1658,-3.0019,1.8200,5.8023,0.5238,0.4953,-0.6525,49.28007216,-122.98365099,1.28999996,
19.0370,0.0325,0.4246,0.1658,4.4959,-3.4536,2.7304,0.5238,0.4953,-0.6525,49.28007216,-122.98365099,1.28999996,
19.0740,-0.5123,2.2135,-0.4877,4.4959,-3.4536,2.7304,0.5238,0.4953,-0.6525,49.28007216,-122.98365099,1.28999996,
19.0940,-0.5123,2.2135,-0.4877,4.4959,-3.4536,2.7304,-0.8730,-1.3045,0.2786,49.28007216,-122.98365099,1.28999996,
19.1130,-0.5123,2.2135,-0.4877,-6.6656,13.0356,0.8716,-0.8730,-1.3045,0.2786,49.28007216,-122.98365099,1.28999996,
19.1310,0.2641,0.9228,0.0859,-6.6656,13.0356,0.8716,-0.8730,-1.3045,0.2786,49.28007216,-122.98365099,1.28999996,
19.1500,0.2641,0.9228,0.0859,-6.6656,13.0356,0.8716,1.1174,2.5441,-0.6021,49.28007216,-122.98365099,1.28999996,
19.1690,0.2641,0.9228,0.0859,12.6975,-11.1389,-6.9159,1.1174,2.5441,-0.6021,49.28007216,-122.98365099,1.28999996,
19.2080,-0.6281,0.8550,-0.0499,12.6975,-11.1389,-6.9159,1.1174,2.5441,-0.6021,49.28007216,-122.98365099,1.28999996,
19.2270,-0.6281,0.8550,-0.0499,12.6975,-11.1389,-6.9159,1.4036,0.5143,0.0254,49.28007216,-122.98365099,1.28999996,
19.2460,-0.6281,0.8550,-0.0499,-8.4611,8.8948,-2.3742,1.4036,0.5143,0.0254,49.28007216,-122.98365099,1.28999996,
19.2640,-0.3431,0.8785,0.1147,-8.4611,8.8948,-2.3742,1.4036,0.5143,0.0254,49.28007216,-122.98365099,1.28999996,
19.2860,-0.3431,0.8785,0.1147,-8.4611,8.8948,-2.3742,1.8037,0.1557,0.1060,49.28007216,-122.98365099,1.28999996,
19.3020,-0.3431,0.8785,0.1147,-0.6251,-2.0709,2.0654,1.8037,0.1557,0.1060,49.28007216,-122.98365099,1.28999996,
19.3400,-0.0879,0.7338,0.2416,-0.6251,-2.0709,2.0654,1.8037,0.1557,0.1060,49.28004889,-122.98365540,1.80999994,
19.3580,-0.0879,0.7338,0.2416,-0.6251,-2.0709,2.0654,1.2227,0.6660,-0.0943,49.28004889,-122.98365540,1.80999994,
19.3780,-0.0879,0.7338,0.2416,-0.5394,-1.7009,3.5476,1.2227,0.6660,-0.0943,49.28004889,-122.98365540,1.80999994,
19.4060,-0.0363,0.6701,0.0822,-0.5394,-1.7009,3.5476,1.2227,0.6660,-0.0943,49.28004889,-122.98365540,1.80999994,
19.4290,-0.0363,0.6701,0.0822,-0.5394,-1.7009,3.5476,0.5982,1.3779,0.2923,49.28004889,-122.98365540,1.80999994,
19.4450,-0.0363,0.6701,0.0822,2.3917,-2.6366,4.1723,0.5982,1.3779,0.2923,49.28004889,-122.98365540,1.80999994,
19.4630,-0.3764,0.7860,0.1336,2.3917,-2.6366,4.1723,0.5982,1.3779,0.2923,49.28004889,-122.98365540,1.80999994,
19.4820,-0.3764,0.7860,0.1336,2.3917,-2.6366,4.1723,0.0569,0.6119,0.4860,49.28004889,-122.98365540,1.80999994,
19.5020,-0.3764,0.7860,0.1336,-1.9785,-2.1609,2.6944,0.0569,0.6119,0.4860,49.28004889,-122.98365540,1.80999994,
19.5410,-0.4700,1.4123,-0.0258,-1.9785,-2.1609,2.6944,0.0569,0.6119,0.4860,49.28004889,-122.98365540,1.80999994,
19.5600,-0.4700,1.4123,-0.0258,-1.9785,-2.1609,2.6944,-1.6599,0.3005,0.2739,49.28004889,-122.98365540,1.80999994,
19.5780,-0.4700,1.4123,-0.0258,-1.2512,-0.6909,1.2408,-1.6599,0.3005,0.2739,49.28004889,-122.98365540,1.80999994,
19.5970,-0.1777,1.7828,-0.1178,-1.2512,-0.6909,1.2408,-1.6599,0.3005,0.2739,49.28004889,-122.98365540,1.80999994,
19.6170,-0.1777,1.7828,-0.1178,-1.2512,-0.6909,1.2408,-2.4164,-1.6693,-0.3973,49.28004889,-122.98365540,1.80999994,
19.6370,-0.1777,1.7828,-0.1178,-2.7061,8.5725,-3.2931,-2.4164,-1.6693,-0.3973,49.28004889,-122.98365540,1.80999994,
19.6810,-0.4917,1.4936,0.0378,-2.7061,8.5725,-3.2931,-2.4164,-1.6693,-0.3973,49.28004889,-122.98365540,1.80999994,
19.6930,-0.4917,1.4936,0.0378,-2.7061,8.5725,-3.2931,-2.0977,-0.8949,0.1943,49.28004889,-122.98365540,1.80999994,
19.7110,-0.4917,1.4936,0.0378,-1.8230,7.7709,-1.0920,-2.0977,-0.8949,0.1943,49.28004889,-122.98365540,1.80999994,
19.7290,-0.0195,1.1525,-0.0685,-1.8230,7.7709,-1.0920,-2.0977,-0.8949,0.1943,49.28004889,-122.98365540,1.80999994,
19.7480,-0.0195,1.1525,-0.0685,-1.8230,7.7709,-1.0920,-1.4063,-1.7529,-0.0256,49.28004889,-122.98365540,1.80999994,
19.7680,-0.0195,1.1525,-0.0685,-1.3239,2.4912,-3.8198,-1.4063,-1.7529,-0.0256,49.28004889,-122.98365540,1.80999994,
19.8060,0.1387,0.4030,0.1561,-1.3239,2.4912,-3.8198,-1.4063,-1.7529,-0.0256,49.28004889,-122.98365540,1.80999994,
19.8250,0.1387,0.4030,0.1561,-1.3239,2.4912,-3.8198,-0.1075,-0.3086,-0.6001,49.28004889,-122.98365540,1.80999994,
19.8450,0.1387,0.4030,0.1561,2.9619,-2.4612,-1.7024,-0.1075,-0.3086,-0.6001,49.28004889,-122.98365540,1.80999994,
19.8630,-0.0311,0.1604,0.0376,2.9619,-2.4612,-1.7024,-0.1075,-0.3086,-0.6001,49.28004889,-122.98365540,1.80999994,
19.8810,-0.0311,0.1604,0.0376,2.9619,-2.4612,-1.7024,0.8666,-0.0002,-0.3265,49.28004889,-122.98365540,1.80999994,
19.9010,-0.0311,0.1604,0.0376,2.2053,-7.2454,-1.7524,0.8666,-0.0002,-0.3265,49.28004889,-122.98365540,1.80999994,
19.9400,-0.3073,0.7397,0.6146,2.2053,-7.2454,-1.7524,0.8666,-0.0002,-0.3265,49.28004889,-122.98365540,1.80999994,
19.9600,-0.3073,0.7397,0.6146,2.2053,-7.2454,-1.7524,1.1747,-0.8921,-0.1868,49.28004889,-122.98365540,1.80999994,
19.9780,-0.3073,0.7397,0.6146,-0.1118,-6.8529,1.2408,1.1747,-0.8921,-0.1868,49.28004889,-122.98365540,1.80999994,
19.9990,0.1667,1.1258,0.6188,-0.1118,-6.8529,1.2408,1.1747,-0.8921,-0.1868,49.28004889,-122.98365540,1.80999994,
20.0170,0.1667,1.1258,0.6188,-0.1118,-6.8529,1.2408,-0.5410,-0.1049,-0.1884,49.28004889,-122.98365540,1.80999994,
20.0360,0.1667,1.1258,0.6188,0.2163,3.8260,5.0430,-0.5410,-0.1049,-0.1884,49.28004889,-122.98365540,1.80999994,
20.0740,-0.4828,1.9235,0.1486,0.2163,3.8260,5.0430,-0.5410,-0.1049,-0.1884,49.28004889,-122.98365540,1.80999994,
20.0920,-0.4828,1.9235,0.1486,0.2163,3.8260,5.0430,-0.9751,-0.2164,0.2212,49.28004889,-122.98365540,1.80999994,
20.1120,-0.4828,1.9235,0.1486,3.4276,1.3222,1.5839,-0.9751,-0.2164,0.2212,49.28004889,-122.98365540,1.80999994,
20.1310,0.4532,0.3970,-0.2948,3.4276,1.3222,1.5839,-0.9751,-0.2164,0.2212,49.28004889,-122.98365540,1.80999994,
20.1490,0.4532,0.3970,-0.2948,3.4276,1.3222,1.5839,0.1962,1.8825,-0.0064,49.28004889,-122.98365540,1.80999994,
20.1690,0.4532,0.3970,-0.2948,0.3131,2.0191,-7.3696,0.1962,1.8825,-0.0064,49.28004889,-122.98365540,1.80999994,
20.2080,-0.7634,1.4855,-0.0873,0.3131,2.0191,-7.3696,0.1962,1.8825,-0.0064,49.28004889,-122.98365540,1.80999994,
20.2260,-0.7634,1.4855,-0.0873,0.3131,2.0191,-7.3696,1.1776,0.2447,-0.0830,49.28004889,-122.98365540,1.80999994,
20.2450,-0.7634,1.4855,-0.0873,-4.5961,5.5549,-2.3145,1.1776,0.2447,-0.0830,49.28004889,-122.98365540,1.80999994,
20.2730,-0.2396,0.9340,0.1325,-4.5961,5.5549,-2.3145,1.1776,0.2447,-0.0830,49.28004889,-122.98365540,1.80999994,
20.2880,-0.2396,0.9340,0.1325,-4.5961,5.5549,-2.3145,1.8052,0.7908,-0.0798,49.28004889,-122.98365540,1.80999994,
20.3010,-0.2396,0.9340,0.1325,1.9008,-1.1931,1.9417,1.8052,0.7908,-0.0798,49.28004889,-122.98365540,1.80999994,
20.3380,-0.2997,0.7433,0.1531,1.9008,-1.1931,1.9417,1.8052,0.7908,-0.0798,49.28003705,-122.98365443,1.10000002,
20.3570,-0.2997,0.7433,0.1531,1.9008,-1.1931,1.9417,1.5529,0.5456,-0.0931,49.28003705,-122.98365443,1.10000002,
20.3760,-0.2997,0.7433,0.1531,-1.5328,-1.0245,2.0940,1.5529,0.5456,-0.0931,49.28003705,-122.98365443,1.10000002,
20.4050,-0.1528,0.8038,0.2798,-1.5328,-1.0245,2.0940,1.5529,0.5456,-0.0931,49.28003705,-122.98365443,1.10000002,
20.4290,-0.1528,0.8038,0.2798,-1.5328,-1.0245,2.0940,1.2752,1.1392,0.2242,49.28003705,-122.98365443,1.10000002,
20.4440,-0.1528,0.8038,0.2798,-0.1921,-2.5238,3.9080,1.2752,1.1392,0.2242,49.28003705,-122.98365443,1.10000002,
20.4620,-0.0116,0.6397,0.1141,-0.1921,-2.5238,3.9080,1.2752,1.1392,0.2242,49.28003705,-122.98365443,1.10000002,
20.4810,-0.0116,0.6397,0.1141,-0.1921,-2.5238,3.9080,0.3697,1.7252,0.5911,49.28003705,-122.98365443,1.10000002,
20.5010,-0.0116,0.6397,0.1141,1.2941,-1.9165,3.6313,0.3697,1.7252,0.5911,49.28003705,-122.98365443,1.10000002,
20.5390,-0.6345,0.8625,0.1378,1.2941,-1.9165,3.6313,0.3697,1.7252,0.5911,49.28003705,-122.98365443,1.10000002,
20.5590,-0.6345,0.8625,0.1378,1.2941,-1.9165,3.6313,-0.0661,0.8370,0.5151,49.28003705,-122.98365443,1.10000002,
20.5790,-0.6345,0.8625,0.1378,-3.5044,-2.6542,3.5180,-0.0661,0.8370,0.5151,49.28003705,-122.98365443,1.10000002,
20.5980,-0.5479,1.7276,-0.1091,-3.5044,-2.6542,3.5180,-0.0661,0.8370,0.5151,49.28003705,-122.98365443,1.10000002,
20.6160,-0.5479,1.7276,-0.1091,-3.5044,-2.6542,3.5180,-1.5805,-1.1217,-0.2942,49.28003705,-122.98365443,1.10000002,
20.6360,-0.5479,1.7276,-0.1091,-5.1634,2.6720,-0.2215,-1.5805,-1.1217,-0.2942,49.28003705,-122.98365443,1.10000002,
20.6730,-0.0105,1.7735,0.0336,-5.1634,2.6720,-0.2215,-1.5805,-1.1217,-0.2942,49.28003705,-122.98365443,1.10000002,
20.6920,-0.0105,1.7735,0.0336,-5.1634,2.6720,-0.2215,-2.1338,-0.5170,-0.0933,49.28003705,-122.98365443,1.10000002,
20.7110,-0.0105,1.7735,0.0336,0.9520,7.9236,-0.8681,-2.1338,-0.5170,-0.0933,49.28003705,-122.98365443,1.10000002,
20.7310,-0.3580,1.2958,-0.0411,0.9520,7.9236,-0.8681,-2.1338,-0.5170,-0.0933,49.28003705,-122.98365443,1.10000002,
20.7480,-0.3580,1.2958,-0.0411,0.9520,7.9236,-0.8681,-1.5536,-1.7412,-0.1525,49.28003705,-122.98365443,1.10000002,
20.7670,-0.3580,1.2958,-0.0411,-1.7783,6.1191,-1.8035,-1.5536,-1.7412,-0.1525,49.28003705,-122.98365443,1.10000002,
20.8070,0.0971,0.9286,-0.2454,-1.7783,6.1191,-1.8035,-1.5536,-1.7412,-0.1525,49.28003705,-122.98365443,1.10000002,
20.8270,0.0971,0.9286,-0.2454,-1.7783,6.1191,-1.8035,-1.4547,-1.5871,-0.3876,49.28003705,-122.98365443,1.10000002,
20.8460,0.0971,0.9286,-0.2454,0.0455,1.8952,-3.9998,-1.4547,-1.5871,-0.3876,49.28003705,-122.98365443,1.10000002,
20.8630,-0.0163,0.3682,0.2318,0.0455,1.8952,-3.9998,-1.4547,-1.5871,-0.3876,49.28003705,-122.98365443,1.10000002,
20.8820,-0.0163,0.3682,0.2318,0.0455,1.8952,-3.9998,0.2917,-1.1640,-0.5176,49.28003705,-122.98365443,1.10000002,
20.9010,-0.0163,0.3682,0.2318,2.1384,-4.0964,-1.5150,0.2917,-1.1640,-0.5176,49.28003705,-122.98365443,1.10000002,
20.9390,0.0877,0.1645,-0.0694,2.1384,-4.0964,-1.5150,0.2917,-1.1640,-0.5176,49.28003705,-122.98365443,1.10000002,
20.9590,0.0877,0.1645,-0.0694,2.1384,-4.0964,-1.5150,0.6861,-0.0847,-0.4792,49.28003705,-122.98365443,1.10000002,
20.9780,0.0877,0.1645,-0.0694,2.9313,-7.2725,-3.4146,0.6861,-0.0847,-0.4792,49.28003705,-122.98365443,1.10000002,
20.9960,-0.3310,1.1219,0.7865,2.9313,-7.2725,-3.4146,0.6861,-0.0847,-0.4792,49.28003705,-122.98365443,1.10000002,
21.0160,-0.3310,1.1219,0.7865,2.9313,-7.2725,-3.4146,0.6861,-1.2303,-0.0383,49.28003705,-122.98365443,1.10000002,
21.0340,-0.3310,1.1219,0.7865,0.3559,-5.6644,1.6358,0.6861,-1.2303,-0.0383,49.28003705,-122.98365443,1.10000002,
21.0720,0.4737,0.9570,0.4290,0.3559,-5.6644,1.6358,0.6861,-1.2303,-0.0383,49.28003705,-122.98365443,1.10000002,
21.0920,0.4737,0.9570,0.4290,0.3559,-5.6644,1.6358,-0.6578,0.7611,-0.2872,49.28003705,-122.98365443,1.10000002,
21.1110,0.4737,0.9570,0.4290,2.1515,5.0128,5.4603,-0.6578,0.7611,-0.2872,49.28003705,-122.98365443,1.10000002,
21.1290,-0.7254,1.7249,0.0311,2.1515,5.0128,5.4603,-0.6578,0.7611,-0.2872,49.28003705,-122.98365443,1.10000002,
21.1490,-0.7254,1.7249,0.0311,2.1515,5.0128,5.4603,-0.8580,-0.4624,0.2910,49.28003705,-122.98365443,1.10000002,
21.1680,-0.7254,1.7249,0.0311,0.7977,3.9837,1.2185,-0.8580,-0.4624,0.2910,49.28003705,-122.98365443,1.10000002,
21.2080,0.3120,0.6895,-0.0963,0.7977,3.9837,1.2185,-0.8580,-0.4624,0.2910,49.28003705,-122.98365443,1.10000002,
21.2260,0.3120,0.6895,-0.0963,0.7977,3.9837,1.2185,0.4983,1.7020,-0.4364,49.28003705,-122.98365443,1.10000002,
21.2430,0.3120,0.6895,-0.0963,2.5452,-1.5980,-6.6430,0.4983,1.7020,-0.4364,49.28003705,-122.98365443,1.10000002,
21.2620,-0.6316,1.2928,-0.0361,2.5452,-1.5980,-6.6430,0.4983,1.7020,-0.4364,49.28003705,-122.98365443,1.10000002,
21.2810,-0.6316,1.2928,-0.0361,2.5452,-1.5980,-6.6430,1.3823,0.1031,-0.0205,49.28003705,-122.98365443,1.10000002,
21.3010,-0.6316,1.2928,-0.0361,-5.8150,5.2966,-2.5682,1.3823,0.1031,-0.0205,49.28003705,-122.98365443,1.10000002,
21.3390,-0.2284,0.9566,0.1003,-5.8150,5.2966,-2.5682,1.3823,0.1031,-0.0205,49.28003705,-122.98365443,1.10000002,
21.3580,-0.2284,0.9566,0.1003,-5.8150,5.2966,-2.5682,1.8751,0.7068,-0.1402,49.28003705,-122.98365443,1.10000002,
21.3770,-0.2284,0.9566,0.1003,2.4877,-0.7407,2.1935,1.8751,0.7068,-0.1402,49.28003705,-122.98365443,1.10000002,
21.4050,-0.2729,0.7166,0.1262,2.4877,-0.7407,2.1935,1.8751,0.7068,-0.1402,49.28003705,-122.98365443,1.10000002,
21.4300,-0.2729,0.7166,0.1262,2.4877,-0.7407,2.1935,1.5808,0.6850,-0.1378,49.28003705,-122.98365443,1.10000002,
21.4440,-0.2729,0.7166,0.1262,-0.9800,-1.4170,2.1944,1.5808,0.6850,-0.1378,49.28003705,-122.98365443,1.10000002,
21.4620,-0.1806,0.7672,0.1868,-0.9800,-1.4170,2.1944,1.5808,0.6850,-0.1378,49.28003705,-122.98365443,1.10000002,
21.4820,-0.1806,0.7672,0.1868,-0.9800,-1.4170,2.1944,1.0715,1.2819,0.2656,49.28003705,-122.98365443,1.10000002,
21.5000,-0.1806,0.7672,0.1868,-0.0259,-2.7431,3.5502,1.0715,1.2819,0.2656,49.28003705,-122.98365443,1.10000002,
21.5390,-0.1453,0.6841,0.1262,-0.0259,-2.7431,3.5502,1.0715,1.2819,0.2656,49.28003705,-122.98365443,1.10000002,
21.5580,-0.1453,0.6841,0.1262,-0.0259,-2.7431,3.5502,0.3289,1.2570,0.6363,49.28003705,-122.98365443,1.10000002,
21.5770,-0.1453,0.6841,0.1262,0.4539,-1.3675,3.9613,0.3289,1.2570,0.6363,49.28003705,-122.98365443,1.10000002,
21.5970,-0.5665,0.7800,0.1893,0.4539,-1.3675,3.9613,0.3289,1.2570,0.6363,49.28003705,-122.98365443,1.10000002,
21.6150,-0.5665,0.7800,0.1893,0.4539,-1.3675,3.9613,0.2095,0.8650,0.4855,49.28003705,-122.98365443,1.10000002,
21.6330,-0.5665,0.7800,0.1893,-3.0300,-3.0585,3.4406,0.2095,0.8650,0.4855,49.28003705,-122.98365443,1.10000002,
21.6720,-0.5669,1.6278,-0.1119,-3.0300,-3.0585,3.4406,0.2095,0.8650,0.4855,49.28003705,-122.98365443,1.10000002,
21.6910,-0.5669,1.6278,-0.1119,-3.0300,-3.0585,3.4406,-1.3063,-0.4254,0.0217,49.28003705,-122.98365443,1.10000002,
21.7100,-0.5669,1.6278,-0.1119,-3.9878,0.9540,1.4473,-1.3063,-0.4254,0.0217,49.28003705,-122.98365443,1.10000002,
21.7280,-0.0525,1.7762,-0.2354,-3.9878,0.9540,1.4473,-1.3063,-0.4254,0.0217,49.28003705,-122.98365443,1.10000002,
21.7470,-0.0525,1.7762,-0.2354,-3.9878,0.9540,1.4473,-2.2148,-1.3877,-0.3896,49.28003705,-122.98365443,1.10000002,
21.7680,-0.0525,1.7762,-0.2354,-1.5678,8.8041,-4.5882,-2.2148,-1.3877,-0.3896,49.28003705,-122.98365443,1.10000002,
21.8060,-0.4362,1.3983,-0.0056,-1.5678,8.8041,-4.5882,-2.2148,-1.3877,-0.3896,49.28003705,-122.98365443,1.10000002,
21.8240,-0.4362,1.3983,-0.0056,-1.5678,8.8041,-4.5882,-1.7856,-1.1811,-0.1586,49.28003705,-122.98365443,1.10000002,
21.8420,-0.4362,1.3983,-0.0056,-1.1652,7.1296,-0.7388,-1.7856,-1.1811,-0.1586,49.28003705,-122.98365443,1.10000002,
21.8620,-0.0603,0.9713,-0.1796,-1.1652,7.1296,-0.7388,-1.7856,-1.1811,-0.1586,49.28003705,-122.98365443,1.10000002,
21.8810,-0.0603,0.9713,-0.1796,-1.1652,7.1296,-0.7388,-1.1733,-2.5301,-0.2877,49.28003705,-122.98365443,1.10000002,
21.9000,-0.0603,0.9713,-0.1796,-0.8794,1.2748,-4.3372,-1.1733,-2.5301,-0.2877,49.28003705,-122.98365443,1.10000002,
21.9390,0.1605,0.3515,0.0501,-0.8794,1.2748,-4.3372,-1.1733,-2.5301,-0.2877,49.28003705,-122.98365443,1.10000002,
21.9580,0.1605,0.3515,0.0501,-0.8794,1.2748,-4.3372,-0.0605,-0.9427,-0.5535,49.28003705,-122.98365443,1.10000002,
21.9780,0.1605,0.3515,0.0501,2.8876,-3.6781,-1.9742,-0.0605,-0.9427,-0.5535,49.28003705,-122.98365443,1.10000002,
21.9960,0.0818,0.2127,0.0281,2.8876,-3.6781,-1.9742,-0.0605,-0.9427,-0.5535,49.28003705,-122.98365443,1.10000002,
22.0150,0.0818,0.2127,0.0281,2.8876,-3.6781,-1.9742,0.6275,-0.1145,-0.6425,49.28003705,-122.98365443,1.10000002,
22.0350,0.0818,0.2127,0.0281,4.0276,-7.3419,-2.2069,0.6275,-0.1145,-0.6425,49.28003705,-122.98365443,1.10000002,
22.0720,-0.3692,1.0968,0.8067,4.0276,-7.3419,-2.2069,0.6275,-0.1145,-0.6425,49.28003705,-122.98365443,1.10000002,
22.0920,-0.3692,1.0968,0.8067,4.0276,-7.3419,-2.2069,0.3402,-0.8959,-0.2491,49.28003705,-122.98365443,1.10000002,
22.1090,-0.3692,1.0968,0.8067,0.0189,-3.8264,2.6118,0.3402,-0.8959,-0.2491,49.28003705,-122.98365443,1.10000002,
22.1280,0.3817,0.8350,0.4439,0.0189,-3.8264,2.6118,0.3402,-0.8959,-0.2491,49.28003705,-122.98365443,1.10000002,
22.1480,0.3817,0.8350,0.4439,0.0189,-3.8264,2.6118,-0.6916,0.2897,-0.2490,49.28003705,-122.98365443,1.10000002,
22.1670,0.3817,0.8350,0.4439,1.5573,2.2924,4.4146,-0.6916,0.2897,-0.2490,49.28003705,-122.98365443,1.10000002,
22.2060,-0.6295,1.8915,-0.2243,1.5573,2.2924,4.4146,-0.6916,0.2897,-0.2490,49.28003705,-122.98365443,1.10000002,
22.2250,-0.6295,1.8915,-0.2243,1.5573,2.2924,4.4146,-0.8817,-0.2606,0.7495,49.28003705,-122.98365443,1.10000002,
22.2420,-0.6295,1.8915,-0.2243,-0.3198,5.2695,0.3620,-0.8817,-0.2606,0.7495,49.28003705,-122.98365443,1.10000002,
22.2680,0.2492,0.6311,0.0537,-0.3198,5.2695,0.3620,-0.8817,-0.2606,0.7495,49.28003705,-122.98365443,1.10000002,
22.2830,0.2492,0.6311,0.0537,-0.3198,5.2695,0.3620,0.6193,2.2481,-0.5249,49.28003705,-122.98365443,1.10000002,
22.3000,0.2492,0.6311,0.0537,5.0109,-2.2988,-6.1188,0.6193,2.2481,-0.5249,49.28003705,-122.98365443,1.10000002,
22.3380,-0.6829,1.2507,-0.0746,5.0109,-2.2988,-6.1188,0.6193,2.2481,-0.5249,49.28002056,-122.98365681,1.10000002,
22.3580,-0.6829,1.2507,-0.0746,5.0109,-2.2988,-6.1188,1.3773,0.2209,-0.0100,49.28002056,-122.98365681,1.10000002,
22.3780,-0.6829,1.2507,-0.0746,-6.6181,5.9050,-2.4218,1.3773,0.2209,-0.0100,49.28002056,-122.98365681,1.10000002,
22.4060,-0.2283,0.9440,0.0974,-6.6181,5.9050,-2.4218,1.3773,0.2209,-0.0100,49.28002056,-122.98365681,1.10000002,
22.4320,-0.2283,0.9440,0.0974,-6.6181,5.9050,-2.4218,1.8197,1.0259,-0.0270,49.28002056,-122.98365681,1.10000002,
22.4460,-0.2283,0.9440,0.0974,2.6378,-1.4196,2.1915,1.8197,1.0259,-0.0270,49.28002056,-122.98365681,1.10000002,
22.4620,-0.2698,0.7451,0.0844,2.6378,-1.4196,2.1915,1.8197,1.0259,-0.0270,49.28002056,-122.98365681,1.10000002,
22.4810,-0.2698,0.7451,0.0844,2.6378,-1.4196,2.1915,1.3598,0.8259,-0.0497,49.28002056,-122.98365681,1.10000002,
22.5010,-0.2698,0.7451,0.0844,-1.4175,-0.9328,1.6801,1.3598,0.8259,-0.0497,49.28002056,-122.98365681,1.10000002,
22.5380,-0.1426,0.7921,0.2503,-1.4175,-0.9328,1.6801,1.3598,0.8259,-0.0497,49.28002056,-122.98365681,1.10000002,
22.5580,-0.1426,0.7921,0.2503,-1.4175,-0.9328,1.6801,0.9483,1.5250,0.2957,49.28002056,-122.98365681,1.10000002,
22.5760,-0.1426,0.7921,0.2503,0.7149,-2.5125,3.9178,0.9483,1.5250,0.2957,49.28002056,-122.98365681,1.10000002,
22.5970,-0.2377,0.6279,0.1385,0.7149,-2.5125,3.9178,0.9483,1.5250,0.2957,49.28002056,-122.98365681,1.10000002,
22.6140,-0.2377,0.6279,0.1385,0.7149,-2.5125,3.9178,0.1376,1.3228,0.6851,49.28002056,-122.98365681,1.10000002,
22.6340,-0.2377,0.6279,0.1385,-0.2140,-1.7250,3.8400,0.1376,1.3228,0.6851,49.28002056,-122.98365681,1.10000002,
22.6720,-0.5130,0.7813,0.1177,-0.2140,-1.7250,3.8400,0.1376,1.3228,0.6851,49.28002056,-122.98365681,1.10000002,
22.6910,-0.5130,0.7813,0.1177,-0.2140,-1.7250,3.8400,-0.1619,0.8625,0.5291,49.28002056,-122.98365681,1.10000002,
22.7090,-0.5130,0.7813,0.1177,-2.2946,-3.6314,3.4897,-0.1619,0.8625,0.5291,49.28002056,-122.98365681,1.10000002,
22.7280,-0.5846,1.7833,-0.1709,-2.2946,-3.6314,3.4897,-0.1619,0.8625,0.5291,49.28002056,-122.98365681,1.10000002,
22.7480,-0.5846,1.7833,-0.1709,-2.2946,-3.6314,3.4897,-1.7037,-1.4050,-0.4378,49.28002056,-122.98365681,1.10000002,
22.7680,-0.5846,1.7833,-0.1709,-4.2079,3.0163,0.9821,-1.7037,-1.4050,-0.4378,49.28002056,-122.98365681,1.10000002,
22.8050,-0.0352,1.8983,-0.0277,-4.2079,3.0163,0.9821,-1.7037,-1.4050,-0.4378,49.28002056,-122.98365681,1.10000002,
22.8240,-0.0352,1.8983,-0.0277,-4.2079,3.0163,0.9821,-2.3219,-1.1177,-0.4228,49.28002056,-122.98365681,1.10000002,
22.8420,-0.0352,1.8983,-0.0277,0.0101,8.9164,-4.9430,-2.3219,-1.1177,-0.4228,49.28002056,-122.98365681,1.10000002,
22.8620,-0.2332,1.3257,-0.0367,0.0101,8.9164,-4.9430,-2.3219,-1.1177,-0.4228,49.28002056,-122.98365681,1.10000002,
22.8810,-0.2332,1.3257,-0.0367,0.0101,8.9164,-4.9430,-1.7852,-1.5808,-0.2725,49.28002056,-122.98365681,1.10000002,
22.9000,-0.2332,1.3257,-0.0367,-1.1858,6.8780,-1.8184,-1.7852,-1.5808,-0.2725,49.28002056,-122.98365681,1.10000002,
22.9380,-0.1036,0.9578,-0.0414,-1.1858,6.8780,-1.8184,-1.7852,-1.5808,-0.2725,49.28002056,-122.98365681,1.10000002,
22.9580,-0.1036,0.9578,-0.0414,-1.1858,6.8780,-1.8184,-0.9787,-1.8218,-0.1484,49.28002056,-122.98365681,1.10000002,
22.9760,-0.1036,0.9578,-0.0414,0.6487,2.6600,-4.1220,-0.9787,-1.8218,-0.1484,49.28002056,-122.98365681,1.10000002,
22.9950,0.2053,0.2925,0.1036,0.6487,2.6600,-4.1220,-0.9787,-1.8218,-0.1484,49.28002056,-122.98365681,1.10000002,
23.0140,0.2053,0.2925,0.1036,0.6487,2.6600,-4.1220,0.0912,-0.2362,-0.1081,49.28002056,-122.98365681,1.10000002,
23.0330,0.2053,0.2925,0.1036,2.5565,-4.5522,-1.6698,0.0912,-0.2362,-0.1081,49.28002056,-122.98365681,1.10000002,
23.0720,0.0431,0.1358,0.1685,2.5565,-4.5522,-1.6698,0.0912,-0.2362,-0.1081,49.28002056,-122.98365681,1.10000002,
23.0920,0.0431,0.1358,0.1685,2.5565,-4.5522,-1.6698,0.8560,1.0877,-0.2067,49.28002056,-122.98365681,1.10000002,
23.1080,0.0431,0.1358,0.1685,3.7764,-8.0715,-1.3453,0.8560,1.0877,-0.2067,49.28002056,-122.98365681,1.10000002,
23.1290,-0.5655,1.1980,0.8631,3.7764,-8.0715,-1.3453,0.8560,1.0877,-0.2067,49.28002056,-122.98365681,1.10000002,
23.1470,-0.5655,1.1980,0.8631,3.7764,-8.0715,-1.3453,0.4547,-1.2959,-0.0362,49.28002056,-122.98365681,1.10000002,
23.1660,-0.5655,1.1980,0.8631,-2.4949,-3.0277,3.5297,0.4547,-1.2959,-0.0362,49.28002056,-122.98365681,1.10000002,
23.2050,0.4935,1.0915,0.2763,-2.4949,-3.0277,3.5297,0.4547,-1.2959,-0.0362,49.28002056,-122.98365681,1.10000002,
23.2240,0.4935,1.0915,0.2763,-2.4949,-3.0277,3.5297,-0.7030,0.0705,-0.2207,49.28002056,-122.98365681,1.10000002,
23.2430,0.4935,1.0915,0.2763,2.3161,2.3203,2.5857,-0.7030,0.0705,-0.2207,49.28002056,-122.98365681,1.10000002,
23.2610,-0.1393,1.3042,-0.1527,2.3161,2.3203,2.5857,-0.7030,0.0705,-0.2207,49.28002056,-122.98365681,1.10000002,
23.2810,-0.1393,1.3042,-0.1527,2.3161,2.3203,2.5857,-0.7065,1.3615,0.2354,49.28002056,-122.98365681,1.10000002,
23.2990,-0.1393,1.3042,-0.1527,3.6617,4.8113,-1.3763,-0.7065,1.3615,0.2354,49.28002056,-122.98365681,1.10000002,
23.3360,-0.5397,1.1515,-0.0791,3.6617,4.8113,-1.3763,-0.7065,1.3615,0.2354,49.28002056,-122.98365681,1.10000002,
23.3560,-0.5397,1.1515,-0.0791,3.6617,4.8113,-1.3763,0.6205,1.1580,-0.1191,49.28002056,-122.98365681,1.10000002,
23.3750,-0.5397,1.1515,-0.0791,1.1001,-0.5088,-4.3147,0.6205,1.1580,-0.1191,49.28002056,-122.98365681,1.10000002,
23.4030,-0.2426,1.0252,0.1967,1.1001,-0.5088,-4.3147,0.6205,1.1580,-0.1191,49.28002056,-122.98365681,1.10000002,
23.4210,-0.2426,1.0252,0.1967,1.1001,-0.5088,-4.3147,1.5454,0.8585,-0.0977,49.28002056,-122.98365681,1.10000002,
23.4410,-0.2426,1.0252,0.1967,-3.7813,3.1101,-0.0770,1.5454,0.8585,-0.0977,49.28002056,-122.98365681,1.10000002,
23.4600,-0.3981,0.8352,0.0704,-3.7813,3.1101,-0.0770,1.5454,0.8585,-0.0977,49.28002056,-122.98365681,1.10000002,
23.4790,-0.3981,0.8352,0.0704,-3.7813,3.1101,-0.0770,1.6653,0.7372,-0.1484,49.28002056,-122.98365681,1.10000002,
23.4980,-0.3981,0.8352,0.0704,-0.3565,-0.6471,1.7633,1.6653,0.7372,-0.1484,49.28002056,-122.98365681,1.10000002,
23.5370,-0.1805,0.7592,0.1843,-0.3565,-0.6471,1.7633,1.6653,0.7372,-0.1484,49.28002056,-122.98365681,1.10000002,
23.5580,-0.1805,0.7592,0.1843,-0.3565,-0.6471,1.7633,1.2604,0.6747,0.0353,49.28002056,-122.98365681,1.10000002,
23.5750,-0.1805,0.7592,0.1843,-0.1357,-2.1644,2.4245,1.2604,0.6747,0.0353,49.28002056,-122.98365681,1.10000002,
23.5940,-0.1072,0.7340,0.1737,-0.1357,-2.1644,2.4245,1.2604,0.6747,0.0353,49.28002056,-122.98365681,1.10000002,
23.6140,-0.1072,0.7340,0.1737,-0.1357,-2.1644,2.4245,0.5659,1.3749,0.2797,49.28002056,-122.98365681,1.10000002,
23.6330,-0.1072,0.7340,0.1737,0.8704,-2.0881,3.3426,0.5659,1.3749,0.2797,49.28002056,-122.98365681,1.10000002,
23.6710,-0.3616,0.6824,0.0915,0.8704,-2.0881,3.3426,0.5659,1.3749,0.2797,49.28002056,-122.98365681,1.10000002,
23.6900,-0.3616,0.6824,0.0915,0.8704,-2.0881,3.3426,0.2217,1.2121,0.6155,49.28002056,-122.98365681,1.10000002,
23.7080,-0.3616,0.6824,0.0915,-0.1128,-2.1133,3.1492,0.2217,1.2121,0.6155,49.28002056,-122.98365681,1.10000002,
