
time,gFx,gFy,gFz,ax,ay,az,wx,wy,wz,Latitude,Longitude,Speed (m/s),
0.0900,-0.0726,0.5223,0.7203,0.0000,0.0000,0.0000,0.0000,0.0000,0.0000,0.00000000,0.00000000,0.00000000,
0.1090,-0.0726,0.5223,0.7203,0.0000,0.0000,0.0000,0.5189,0.9398,0.8790,49.28016406,-122.98106718,0.00000000,
0.1480,-0.1164,0.4403,0.7789,0.0000,0.0000,0.0000,0.5189,0.9398,0.8790,49.28016406,-122.98106718,0.00000000,
0.1660,-0.1164,0.4403,0.7789,0.0000,0.0000,0.0000,0.1203,1.0501,0.8263,49.28016406,-122.98106718,0.00000000,
0.1850,-0.1164,0.4403,0.7789,0.0000,0.0000,0.0000,0.1203,1.0501,0.8263,49.28016406,-122.98106718,0.00000000,
0.2240,-0.1020,0.4639,0.7701,0.0000,0.0000,0.0000,0.1203,1.0501,0.8263,49.28016406,-122.98106718,0.00000000,
0.2420,-0.1020,0.4639,0.7701,0.0000,0.0000,0.0000,0.9617,1.1161,1.3812,49.28016406,-122.98106718,0.00000000,
0.2620,-0.1020,0.4639,0.7701,-0.0976,-0.3933,0.3580,0.9617,1.1161,1.3812,49.28016406,-122.98106718,0.00000000,
0.2800,-0.1936,0.6949,0.8132,-0.0976,-0.3933,0.3580,0.9617,1.1161,1.3812,49.28016406,-122.98106718,0.00000000,
0.2990,-0.1936,0.6949,0.8132,-0.0976,-0.3933,0.3580,-0.3375,0.5457,0.8063,49.28016406,-122.98106718,0.00000000,
0.3180,-0.1936,0.6949,0.8132,-0.1294,0.6941,0.2660,-0.3375,0.5457,0.8063,49.28016406,-122.98106718,0.00000000,
0.3570,-0.1318,0.6687,0.8431,-0.1294,0.6941,0.2660,-0.3375,0.5457,0.8063,49.28016406,-122.98106718,0.00000000,
0.3750,-0.1318,0.6687,0.8431,-0.1294,0.6941,0.2660,-0.7808,1.5298,0.7560,49.28016353,-122.98106651,0.00000000,
0.3940,-0.1318,0.6687,0.8431,0.4632,1.5347,0.5253,-0.7808,1.5298,0.7560,49.28016353,-122.98106651,0.00000000,
0.4160,-0.1020,0.3603,0.7511,0.4632,1.5347,0.5253,-0.7808,1.5298,0.7560,49.28016353,-122.98106651,0.00000000,
0.4330,-0.1020,0.3603,0.7511,0.4632,1.5347,0.5253,-0.6759,2.8728,0.5839,49.28016353,-122.98106651,0.00000000,
0.4520,-0.1020,0.3603,0.7511,1.9104,0.2081,0.1321,-0.6759,2.8728,0.5839,49.28016353,-122.98106651,0.00000000,
0.4810,-0.5367,0.3511,0.6102,1.9104,0.2081,0.1321,-0.6759,2.8728,0.5839,49.28016353,-122.98106651,0.00000000,
0.5000,-0.5367,0.3511,0.6102,1.9104,0.2081,0.1321,-1.3337,1.9389,1.3850,49.28016353,-122.98106651,0.00000000,
0.5180,-0.5367,0.3511,0.6102,-1.3688,-1.7128,-1.6193,-1.3337,1.9389,1.3850,49.28016353,-122.98106651,0.00000000,
0.5570,-0.5197,0.3447,0.5557,-1.3688,-1.7128,-1.6193,-1.3337,1.9389,1.3850,49.28016353,-122.98106651,0.00000000,
0.5790,-0.5197,0.3447,0.5557,-1.3688,-1.7128,-1.6193,-1.9744,0.4328,1.7698,49.28016353,-122.98106651,0.00000000,
0.5950,-0.5197,0.3447,0.5557,-1.2303,0.1982,-0.8543,-1.9744,0.4328,1.7698,49.28016353,-122.98106651,0.00000000,
0.6140,-0.3345,0.2952,1.0221,-1.2303,0.1982,-0.8543,-1.9744,0.4328,1.7698,49.28016353,-122.98106651,0.00000000,
0.6320,-0.3345,0.2952,1.0221,-1.2303,0.1982,-0.8543,-2.1956,0.8417,1.7262,49.28016353,-122.98106651,0.00000000,
0.6520,-0.3345,0.2952,1.0221,-1.6434,0.7131,-1.0095,-2.1956,0.8417,1.7262,49.28016353,-122.98106651,0.00000000,
0.6900,-0.3725,0.2231,1.0657,-1.6434,0.7131,-1.0095,-2.1956,0.8417,1.7262,49.28016353,-122.98106651,0.00000000,
0.7090,-0.3725,0.2231,1.0657,-1.6434,0.7131,-1.0095,-1.3517,1.5577,1.0708,49.28016353,-122.98106651,0.00000000,
0.7290,-0.3725,0.2231,1.0657,1.8972,0.0083,2.8284,-1.3517,1.5577,1.0708,49.28016353,-122.98106651,0.00000000,
0.7470,-0.3406,0.1427,1.0118,1.8972,0.0083,2.8284,-1.3517,1.5577,1.0708,49.28016353,-122.98106651,0.00000000,
0.7650,-0.3406,0.1427,1.0118,1.8972,0.0083,2.8284,-1.2154,0.9807,1.2094,49.28016353,-122.98106651,0.00000000,
0.7850,-0.3406,0.1427,1.0118,-0.0956,-0.7289,1.7513,-1.2154,0.9807,1.2094,49.28016353,-122.98106651,0.00000000,
0.8270,-0.4436,0.0946,1.0197,-0.0956,-0.7289,1.7513,-1.2154,0.9807,1.2094,49.28016353,-122.98106651,0.00000000,
0.8420,-0.4436,0.0946,1.0197,-0.0956,-0.7289,1.7513,-1.1301,1.5751,0.7043,49.28016353,-122.98106651,0.00000000,
0.8620,-0.4436,0.0946,1.0197,0.9248,-0.0900,1.9500,-1.1301,1.5751,0.7043,49.28016353,-122.98106651,0.00000000,
0.8810,-0.4202,0.1207,0.9928,0.9248,-0.0900,1.9500,-1.1301,1.5751,0.7043,49.28016353,-122.98106651,0.00000000,
0.8980,-0.4202,0.1207,0.9928,0.9248,-0.0900,1.9500,-1.1222,0.3956,0.7476,49.28016353,-122.98106651,0.00000000,
0.9180,-0.4202,0.1207,0.9928,1.1853,-0.7003,1.3342,-1.1222,0.3956,0.7476,49.28016353,-122.98106651,0.00000000,
0.9560,-0.4501,0.2326,0.8691,1.1853,-0.7003,1.3342,-1.1222,0.3956,0.7476,49.28016353,-122.98106651,0.00000000,
0.9750,-0.4501,0.2326,0.8691,1.1853,-0.7003,1.3342,-0.7681,0.5374,0.5352,49.28016353,-122.98106651,0.00000000,
0.9940,-0.4501,0.2326,0.8691,0.9818,0.6941,1.5272,-0.7681,0.5374,0.5352,49.28016353,-122.98106651,0.00000000,
1.0130,-0.7779,0.2082,0.8095,0.9818,0.6941,1.5272,-0.7681,0.5374,0.5352,49.28016353,-122.98106651,0.00000000,
1.0320,-0.7779,0.2082,0.8095,0.9818,0.6941,1.5272,-0.0626,2.2809,1.9472,49.28016353,-122.98106651,0.00000000,
1.0520,-0.7779,0.2082,0.8095,0.2444,0.2648,0.9062,-0.0626,2.2809,1.9472,49.28016353,-122.98106651,0.00000000,
1.0900,-0.6340,0.2998,0.6778,0.2444,0.2648,0.9062,-0.0626,2.2809,1.9472,49.28016353,-122.98106651,0.00000000,
1.1080,-0.6340,0.2998,0.6778,0.2444,0.2648,0.9062,-0.5644,2.4996,2.2734,49.28016353,-122.98106651,0.00000000,
1.1280,-0.6340,0.2998,0.6778,-0.0398,-1.1822,1.3216,-0.5644,2.4996,2.2734,49.28016353,-122.98106651,0.00000000,
1.1470,-0.9468,0.3536,0.7837,-0.0398,-1.1822,1.3216,-0.5644,2.4996,2.2734,49.28016353,-122.98106651,0.00000000,
1.1650,-0.9468,0.3536,0.7837,-0.0398,-1.1822,1.3216,0.1662,2.1178,2.0460,49.28016353,-122.98106651,0.00000000,
1.1840,-0.9468,0.3536,0.7837,-1.2398,0.3797,1.8068,0.1662,2.1178,2.0460,49.28016353,-122.98106651,0.00000000,
1.2220,-0.8558,0.3812,0.5299,-1.2398,0.3797,1.8068,0.1662,2.1178,2.0460,49.28016353,-122.98106651,0.00000000,
1.2420,-0.8558,0.3812,0.5299,-1.2398,0.3797,1.8068,0.4777,1.9404,1.0928,49.28016353,-122.98106651,0.00000000,
1.2600,-0.8558,0.3812,0.5299,-0.4009,-0.9139,1.7847,0.4777,1.9404,1.0928,49.28016353,-122.98106651,0.00000000,
1.2800,-0.9829,0.3142,0.5880,-0.4009,-0.9139,1.7847,0.4777,1.9404,1.0928,49.28016353,-122.98106651,0.00000000,
1.2980,-0.9829,0.3142,0.5880,-0.4009,-0.9139,1.7847,2.0079,1.6500,0.2746,49.28016353,-122.98106651,0.00000000,
1.3180,-0.9829,0.3142,0.5880,-1.0368,-1.5924,2.8884,2.0079,1.6500,0.2746,49.28016353,-122.98106651,0.00000000,
1.3550,-0.8633,0.2092,0.3468,-1.0368,-1.5924,2.8884,2.0079,1.6500,0.2746,49.28016353,-122.98106651,0.00000000,
1.3750,-0.8633,0.2092,0.3468,-1.0368,-1.5924,2.8884,-0.1741,2.1183,0.2263,49.28016353,-122.98106651,0.00000000,
1.3940,-0.8633,0.2092,0.3468,-1.5138,-1.9575,1.4720,-0.1741,2.1183,0.2263,49.28016353,-122.98106651,0.00000000,
1.4130,-0.8137,0.3218,0.2502,-1.5138,-1.9575,1.4720,-0.1741,2.1183,0.2263,49.28016353,-122.98106651,0.00000000,
1.4320,-0.8137,0.3218,0.2502,-1.5138,-1.9575,1.4720,-0.4605,0.3880,-0.2401,49.28016353,-122.98106651,0.00000000,
1.4520,-0.8137,0.3218,0.2502,1.8550,-2.0464,1.3054,-0.4605,0.3880,-0.2401,49.28016353,-122.98106651,0.00000000,
1.4790,-0.9481,0.4308,0.0839,1.8550,-2.0464,1.3054,-0.4605,0.3880,-0.2401,49.28016353,-122.98106651,0.00000000,
1.4990,-0.9481,0.4308,0.0839,1.8550,-2.0464,1.3054,-0.5476,0.6114,0.2196,49.28016353,-122.98106651,0.00000000,
1.5170,-0.9481,0.4308,0.0839,-0.7500,-0.8708,-0.9058,-0.5476,0.6114,0.2196,49.28016353,-122.98106651,0.00000000,
1.5550,-0.9998,0.5413,0.3429,-0.7500,-0.8708,-0.9058,-0.5476,0.6114,0.2196,49.28016353,-122.98106651,0.00000000,
1.5770,-0.9998,0.5413,0.3429,-0.7500,-0.8708,-0.9058,0.0702,1.1461,0.5652,49.28016353,-122.98106651,0.00000000,
1.5940,-0.9998,0.5413,0.3429,-1.5747,0.1095,1.3653,0.0702,1.1461,0.5652,49.28016353,-122.98106651,0.00000000,
1.6120,-0.7474,0.5807,0.0071,-1.5747,0.1095,1.3653,0.0702,1.1461,0.5652,49.28016353,-122.98106651,0.00000000,
1.6320,-0.7474,0.5807,0.0071,-1.5747,0.1095,1.3653,0.3659,-0.0616,0.0638,49.28016353,-122.98106651,0.00000000,
1.6510,-0.7474,0.5807,0.0071,1.0373,0.5623,-0.2225,0.3659,-0.0616,0.0638,49.28016353,-122.98106651,0.00000000,
1.6880,-0.8743,0.6699,-0.0687,1.0373,0.5623,-0.2225,0.3659,-0.0616,0.0638,49.28016353,-122.98106651,0.00000000,
1.7090,-0.8743,0.6699,-0.0687,1.0373,0.5623,-0.2225,0.2636,0.0115,1.0951,49.28016353,-122.98106651,0.00000000,
1.7270,-0.8743,0.6699,-0.0687,-0.5959,0.5292,-1.7299,0.2636,0.0115,1.0951,49.28016353,-122.98106651,0.00000000,
1.7450,-0.7384,0.7663,0.1291,-0.5959,0.5292,-1.7299,0.2636,0.0115,1.0951,49.28016353,-122.98106651,0.00000000,
1.7660,-0.7384,0.7663,0.1291,-0.5959,0.5292,-1.7299,0.5605,0.0570,0.3205,49.28016353,-122.98106651,0.00000000,
1.7850,-0.7384,0.7663,0.1291,0.4039,1.3890,-0.0218,0.5605,0.0570,0.3205,49.28016353,-122.98106651,0.00000000,
1.8270,-0.7485,0.6081,-0.0744,0.4039,1.3890,-0.0218,0.5605,0.0570,0.3205,49.28016353,-122.98106651,0.00000000,
1.8430,-0.7485,0.6081,-0.0744,0.4039,1.3890,-0.0218,0.1667,-0.1634,-0.2905,49.28016353,-122.98106651,0.00000000,
1.8610,-0.7485,0.6081,-0.0744,0.4056,1.4007,-1.1392,0.1667,-0.1634,-0.2905,49.28016353,-122.98106651,0.00000000,
1.8800,-0.7326,0.2538,0.0424,0.4056,1.4007,-1.1392,0.1667,-0.1634,-0.2905,49.28016353,-122.98106651,0.00000000,
1.8970,-0.7326,0.2538,0.0424,0.4056,1.4007,-1.1392,-0.2888,-0.7758,-0.0676,49.28016353,-122.98106651,0.00000000,
1.9170,-0.7326,0.2538,0.0424,1.4929,-1.9166,-1.9852,-0.2888,-0.7758,-0.0676,49.28016353,-122.98106651,0.00000000,
1.9540,-0.7380,0.5304,0.1248,1.4929,-1.9166,-1.9852,-0.2888,-0.7758,-0.0676,49.28016353,-122.98106651,0.00000000,
1.9740,-0.7380,0.5304,0.1248,1.4929,-1.9166,-1.9852,-0.2087,-0.4601,0.0437,49.28016353,-122.98106651,0.00000000,
1.9930,-0.7380,0.5304,0.1248,-0.3298,-1.8092,-0.6321,-0.2087,-0.4601,0.0437,49.28016353,-122.98106651,0.00000000,
2.0120,-0.8242,0.4950,0.2875,-0.3298,-1.8092,-0.6321,-0.2087,-0.4601,0.0437,49.28016353,-122.98106651,0.00000000,
2.0320,-0.8242,0.4950,0.2875,-0.3298,-1.8092,-0.6321,-0.0596,-0.4226,-0.0367,49.28016353,-122.98106651,0.00000000,
2.0520,-0.8242,0.4950,0.2875,1.6336,-0.3074,0.2028,-0.0596,-0.4226,-0.0367,49.28016353,-122.98106651,0.00000000,
2.0880,-0.9148,0.5547,0.1037,1.6336,-0.3074,0.2028,-0.0596,-0.4226,-0.0367,49.28016353,-122.98106651,0.00000000,
2.1080,-0.9148,0.5547,0.1037,1.6336,-0.3074,0.2028,0.1507,-0.7025,0.1826,49.28016353,-122.98106651,0.00000000,
2.1260,-0.9148,0.5547,0.1037,-1.9344,-0.0152,-0.5575,0.1507,-0.7025,0.1826,49.28016353,-122.98106651,0.00000000,
2.1450,-0.7243,0.4723,0.1424,-1.9344,-0.0152,-0.5575,0.1507,-0.7025,0.1826,49.28016353,-122.98106651,0.00000000,
2.1640,-0.7243,0.4723,0.1424,-1.9344,-0.0152,-0.5575,-0.0389,-0.9252,0.5514,49.28016353,-122.98106651,0.00000000,
2.1840,-0.7243,0.4723,0.1424,-0.0150,-1.4972,-1.8032,-0.0389,-0.9252,0.5514,49.28016353,-122.98106651,0.00000000,
2.2210,-0.7024,0.6221,0.0526,-0.0150,-1.4972,-1.8032,-0.0389,-0.9252,0.5514,49.28016353,-122.98106651,0.00000000,
2.2400,-0.7024,0.6221,0.0526,-0.0150,-1.4972,-1.8032,-0.5314,-0.3018,1.4721,49.28016353,-122.98106651,0.00000000,
2.2600,-0.7024,0.6221,0.0526,-0.8818,-1.4316,-2.1278,-0.5314,-0.3018,1.4721,49.28016353,-122.98106651,0.00000000,
2.2780,-0.6908,0.8682,0.2574,-0.8818,-1.4316,-2.1278,-0.5314,-0.3018,1.4721,49.28016353,-122.98106651,0.00000000,
2.3000,-0.6908,0.8682,0.2574,-0.8818,-1.4316,-2.1278,-0.8808,0.1359,1.0605,49.28016353,-122.98106651,0.00000000,
2.3170,-0.6908,0.8682,0.2574,0.0143,1.0710,-2.7049,-0.8808,0.1359,1.0605,49.28016353,-122.98106651,0.00000000,
2.3540,-0.5064,0.8724,0.6178,0.0143,1.0710,-2.7049,-0.8808,0.1359,1.0605,49.28016353,-122.98106651,0.00000000,
2.3740,-0.5064,0.8724,0.6178,0.0143,1.0710,-2.7049,0.6610,0.5431,0.5476,49.28016353,-122.98106651,0.00000000,
2.3930,-0.5064,0.8724,0.6178,-0.0479,1.2257,4.2840,0.6610,0.5431,0.5476,49.28016353,-122.98106651,0.00000000,
2.4120,-0.9650,1.2275,0.0815,-0.0479,1.2257,4.2840,0.6610,0.5431,0.5476,49.28016353,-122.98106651,0.00000000,
2.4320,-0.9650,1.2275,0.0815,-0.0479,1.2257,4.2840,0.3135,1.8722,1.1530,49.28016353,-122.98106651,0.00000000,
2.4500,-0.9650,1.2275,0.0815,-1.9418,2.8869,-0.1140,0.3135,1.8722,1.1530,49.28016353,-122.98106651,0.00000000,
2.4800,-0.2110,0.7157,0.2614,-1.9418,2.8869,-0.1140,0.3135,1.8722,1.1530,49.28016353,-122.98106651,0.00000000,
2.4990,-0.2110,0.7157,0.2614,-1.9418,2.8869,-0.1140,1.0951,0.7138,0.4472,49.28016353,-122.98106651,0.00000000,
2.5160,-0.2110,0.7157,0.2614,0.6957,1.7486,1.5941,1.0951,0.7138,0.4472,49.28016353,-122.98106651,0.00000000,
2.5550,-0.4838,0.4836,-0.0879,0.6957,1.7486,1.5941,1.0951,0.7138,0.4472,49.28016353,-122.98106651,0.00000000,
2.5780,-0.4838,0.4836,-0.0879,0.6957,1.7486,1.5941,0.0000,-0.3133,0.5347,49.28016353,-122.98106651,0.00000000,
2.5930,-0.4838,0.4836,-0.0879,2.6643,-2.7040,-1.1245,0.0000,-0.3133,0.5347,49.28016353,-122.98106651,0.00000000,
2.6120,-0.7009,0.8344,0.0371,2.6643,-2.7040,-1.1245,0.0000,-0.3133,0.5347,49.28016353,-122.98106651,0.00000000,
2.6310,-0.7009,0.8344,0.0371,2.6643,-2.7040,-1.1245,-0.1219,-1.0565,1.0611,49.28016353,-122.98106651,0.00000000,
2.6500,-0.7009,0.8344,0.0371,-1.5261,-3.0781,-1.5228,-0.1219,-1.0565,1.0611,49.28016353,-122.98106651,0.00000000,
2.6930,-0.4013,1.0591,-0.0654,-1.5261,-3.0781,-1.5228,-0.1219,-1.0565,1.0611,49.28016353,-122.98106651,0.00000000,
2.7070,-0.4013,1.0591,-0.0654,-1.5261,-3.0781,-1.5228,-1.2189,0.5419,0.7425,49.28016353,-122.98106651,0.00000000,
2.7260,-0.4013,1.0591,-0.0654,-1.7163,2.6688,-3.2119,-1.2189,0.5419,0.7425,49.28016353,-122.98106651,0.00000000,
2.7450,-0.3387,0.8577,0.2807,-1.7163,2.6688,-3.2119,-1.2189,0.5419,0.7425,49.28016353,-122.98106651,0.00000000,
2.7650,-0.3387,0.8577,0.2807,-1.7163,2.6688,-3.2119,-1.5741,1.6207,0.2025,49.28016353,-122.98106651,0.00000000,
2.7840,-0.3387,0.8577,0.2807,1.5223,0.1413,-1.3888,-1.5741,1.6207,0.2025,49.28016353,-122.98106651,0.00000000,
2.8260,-0.3404,0.8616,0.5053,1.5223,0.1413,-1.3888,-1.5741,1.6207,0.2025,49.28016353,-122.98106651,0.00000000,
2.8400,-0.3404,0.8616,0.5053,1.5223,0.1413,-1.3888,0.4121,-0.7910,-0.7031,49.28016353,-122.98106651,0.00000000,
2.8590,-0.3404,0.8616,0.5053,1.9124,0.3745,2.1095,0.4121,-0.7910,-0.7031,49.28016353,-122.98106651,0.00000000,
2.8790,-0.7859,0.8359,0.1910,1.9124,0.3745,2.1095,0.4121,-0.7910,-0.7031,49.28016353,-122.98106651,0.00000000,
2.8980,-0.7859,0.8359,0.1910,1.9124,0.3745,2.1095,0.7303,-0.9151,0.0172,49.28016353,-122.98106651,0.00000000,
2.9170,-0.7859,0.8359,0.1910,-0.6507,-0.2060,0.3923,0.7303,-0.9151,0.0172,49.28016353,-122.98106651,0.00000000,
2.9550,-0.4258,0.9245,0.3039,-0.6507,-0.2060,0.3923,0.7303,-0.9151,0.0172,49.28016353,-122.98106651,0.00000000,
2.9730,-0.4258,0.9245,0.3039,-0.6507,-0.2060,0.3923,1.4494,-0.2857,0.3956,49.28016353,-122.98106651,0.00000000,
2.9920,-0.4258,0.9245,0.3039,-2.5186,-0.0073,2.3471,1.4494,-0.2857,0.3956,49.28016353,-122.98106651,0.00000000,
3.0130,-0.3418,0.7967,0.0118,-2.5186,-0.0073,2.3471,1.4494,-0.2857,0.3956,49.28016353,-122.98106651,0.00000000,
3.0310,-0.3418,0.7967,0.0118,-2.5186,-0.0073,2.3471,0.9663,-0.2257,0.1264,49.28016353,-122.98106651,0.00000000,
3.0500,-0.3418,0.7967,0.0118,1.5872,-0.3709,-0.0058,0.9663,-0.2257,0.1264,49.28016353,-122.98106651,0.00000000,
3.0880,-0.5183,0.7820,-0.0467,1.5872,-0.3709,-0.0058,0.9663,-0.2257,0.1264,49.28016353,-122.98106651,0.00000000,
3.1060,-0.5183,0.7820,-0.0467,1.5872,-0.3709,-0.0058,-0.1448,0.4675,0.3055,49.28016353,-122.98106651,0.00000000,
3.1250,-0.5183,0.7820,-0.0467,-1.2411,-0.6688,-2.2750,-0.1448,0.4675,0.3055,49.28016353,-122.98106651,0.00000000,
3.1450,-0.5197,0.9700,0.1868,-1.2411,-0.6688,-2.2750,-0.1448,0.4675,0.3055,49.28016353,-122.98106651,0.00000000,
3.1640,-0.5197,0.9700,0.1868,-1.2411,-0.6688,-2.2750,0.0041,-0.2887,0.0983,49.28016353,-122.98106651,0.00000000,
3.1820,-0.5197,0.9700,0.1868,0.5999,-1.2261,0.0128,0.0041,-0.2887,0.0983,49.28016353,-122.98106651,0.00000000,
3.2210,-0.2165,1.0930,0.1558,0.5999,-1.2261,0.0128,0.0041,-0.2887,0.0983,49.28016353,-122.98106651,0.00000000,
3.2400,-0.2165,1.0930,0.1558,0.5999,-1.2261,0.0128,0.7888,-0.5145,0.1614,49.28016353,-122.98106651,0.00000000,
3.2590,-0.2165,1.0930,0.1558,-1.1018,2.5575,1.5934,0.7888,-0.5145,0.1614,49.28016353,-122.98106651,0.00000000,
3.2780,-0.3655,0.8350,0.0075,-1.1018,2.5575,1.5934,0.7888,-0.5145,0.1614,49.28016353,-122.98106651,0.00000000,
3.2970,-0.3655,0.8350,0.0075,-1.1018,2.5575,1.5934,0.4650,-0.1575,-0.0271,49.28016353,-122.98106651,0.00000000,
3.3160,-0.3655,0.8350,0.0075,1.7057,0.5582,-0.2459,0.4650,-0.1575,-0.0271,49.28016353,-122.98106651,0.00000000,
3.3530,-0.3965,0.4615,-0.0967,1.7057,0.5582,-0.2459,0.4650,-0.1575,-0.0271,49.28016353,-122.98106651,0.00000000,
3.3730,-0.3965,0.4615,-0.0967,1.7057,0.5582,-0.2459,-0.5600,-1.1170,0.6516,49.28016353,-122.98106651,0.00000000,
3.3920,-0.3965,0.4615,-0.0967,-0.2211,-3.9985,-2.6704,-0.5600,-1.1170,0.6516,49.28016353,-122.98106651,0.00000000,
3.4110,-0.3689,0.9860,0.0106,-0.2211,-3.9985,-2.6704,-0.5600,-1.1170,0.6516,49.28016353,-122.98106651,0.00000000,
3.4300,-0.3689,0.9860,0.0106,-0.2211,-3.9985,-2.6704,-0.6115,-1.3809,0.3807,49.28016353,-122.98106651,0.00000000,
3.4480,-0.3689,0.9860,0.0106,-0.7130,-1.8893,-2.2240,-0.6115,-1.3809,0.3807,49.28016353,-122.98106651,0.00000000,
3.4790,-0.2126,1.2770,0.2759,-0.7130,-1.8893,-2.2240,-0.6115,-1.3809,0.3807,49.28016353,-122.98106651,0.00000000,
3.4960,-0.2126,1.2770,0.2759,-0.7130,-1.8893,-2.2240,0.0102,-0.5212,-0.0957,49.28016353,-122.98106651,0.00000000,
3.5160,-0.2126,1.2770,0.2759,0.3651,3.0227,0.1550,0.0102,-0.5212,-0.0957,49.28016353,-122.98106651,0.00000000,
3.5540,-0.3245,1.1657,0.3160,0.3651,3.0227,0.1550,0.0102,-0.5212,-0.0957,49.28016353,-122.98106651,0.00000000,
3.5760,-0.3245,1.1657,0.3160,0.3651,3.0227,0.1550,0.7565,-0.6475,-0.2863,49.28016353,-122.98106651,0.00000000,
3.5930,-0.3245,1.1657,0.3160,0.5550,3.0674,1.8745,0.7565,-0.6475,-0.2863,49.28016353,-122.98106651,0.00000000,
3.6150,-0.2332,0.8957,-0.0670,0.5550,3.0674,1.8745,0.7565,-0.6475,-0.2863,49.28016353,-122.98106651,0.00000000,
3.6290,-0.2332,0.8957,-0.0670,0.5550,3.0674,1.8745,-0.0532,-0.4542,-0.4963,49.28016353,-122.98106651,0.00000000,
3.6480,-0.2332,0.8957,-0.0670,1.0761,0.2256,-1.3148,-0.0532,-0.4542,-0.4963,49.28016353,-122.98106651,0.00000000,
3.6860,-0.3627,0.9002,0.1094,1.0761,0.2256,-1.3148,-0.0532,-0.4542,-0.4963,49.28016353,-122.98106651,0.00000000,
3.7060,-0.3627,0.9002,0.1094,1.0761,0.2256,-1.3148,-1.2515,1.4153,-0.5834,49.28016353,-122.98106651,0.00000000,
3.7250,-0.3627,0.9002,0.1094,1.0534,0.1439,-2.4091,-1.2515,1.4153,-0.5834,49.28016353,-122.98106651,0.00000000,
3.7440,-0.5119,0.7150,0.1477,1.0534,0.1439,-2.4091,-1.2515,1.4153,-0.5834,49.28016353,-122.98106651,0.00000000,
3.7620,-0.5119,0.7150,0.1477,1.0534,0.1439,-2.4091,-0.7457,0.4344,-0.4144,49.28016353,-122.98106651,0.00000000,
3.7820,-0.5119,0.7150,0.1477,-1.2894,-0.6166,-0.2845,-0.7457,0.4344,-0.4144,49.28016353,-122.98106651,0.00000000,
3.8200,-0.4149,1.0068,0.4197,-1.2894,-0.6166,-0.2845,-0.7457,0.4344,-0.4144,49.28016353,-122.98106651,0.00000000,
3.8390,-0.4149,1.0068,0.4197,-1.2894,-0.6166,-0.2845,0.5212,-0.5519,0.4291,49.28016353,-122.98106651,0.00000000,
3.8580,-0.4149,1.0068,0.4197,1.0377,-0.4958,0.2578,0.5212,-0.5519,0.4291,49.28016353,-122.98106651,0.00000000,
3.8770,-0.1430,1.1505,0.3153,1.0377,-0.4958,0.2578,0.5212,-0.5519,0.4291,49.28016353,-122.98106651,0.00000000,
3.8950,-0.1430,1.1505,0.3153,1.0377,-0.4958,0.2578,0.5610,0.6772,0.2778,49.28016353,-122.98106651,0.00000000,
3.9150,-0.1430,1.1505,0.3153,0.2129,2.4088,1.7573,0.5610,0.6772,0.2778,49.28016353,-122.98106651,0.00000000,
3.9530,-0.2083,0.9437,0.0935,0.2129,2.4088,1.7573,0.5610,0.6772,0.2778,49.28016353,-122.98106651,0.00000000,
3.9730,-0.2083,0.9437,0.0935,0.2129,2.4088,1.7573,0.6086,-0.1164,0.1230,49.28016353,-122.98106651,0.00000000,
3.9920,-0.2083,0.9437,0.0935,3.7950,0.8215,0.6221,0.6086,-0.1164,0.1230,49.28016353,-122.98106651,0.00000000,
4.0100,-0.5687,0.8114,0.0398,3.7950,0.8215,0.6221,0.6086,-0.1164,0.1230,49.28016353,-122.98106651,0.00000000,
4.0290,-0.5687,0.8114,0.0398,3.7950,0.8215,0.6221,0.1489,0.5210,0.3109,49.28016353,-122.98106651,0.00000000,
4.0480,-0.5687,0.8114,0.0398,-2.6958,-0.0780,-0.2856,0.1489,0.5210,0.3109,49.28016353,-122.98106651,0.00000000,
4.0860,-0.4658,0.6698,0.0548,-2.6958,-0.0780,-0.2856,0.1489,0.5210,0.3109,49.28016353,-122.98106651,0.00000000,
4.1050,-0.4658,0.6698,0.0548,-2.6958,-0.0780,-0.2856,0.3048,-0.8442,0.1331,49.28016353,-122.98106651,0.00000000,
4.1240,-0.4658,0.6698,0.0548,-1.1919,-2.6253,-0.7302,0.3048,-0.8442,0.1331,49.28016353,-122.98106651,0.00000000,
4.1430,-0.3782,0.8518,-0.0252,-1.1919,-2.6253,-0.7302,0.3048,-0.8442,0.1331,49.28016353,-122.98106651,0.00000000,
4.1620,-0.3782,0.8518,-0.0252,-1.1919,-2.6253,-0.7302,0.0714,-1.7342,0.0882,49.28016353,-122.98106651,0.00000000,
4.1820,-0.3782,0.8518,-0.0252,0.0919,-2.1137,-2.4523,0.0714,-1.7342,0.0882,49.28016353,-122.98106651,0.00000000,
4.2200,-0.2131,1.1155,0.1989,0.0919,-2.1137,-2.4523,0.0714,-1.7342,0.0882,49.28016353,-122.98106651,0.00000000,
4.2390,-0.2131,1.1155,0.1989,0.0919,-2.1137,-2.4523,-0.0029,-0.7366,0.1767,49.28016353,-122.98106651,0.00000000,
4.2580,-0.2131,1.1155,0.1989,-0.3644,1.6471,-0.0721,-0.0029,-0.7366,0.1767,49.28016353,-122.98106651,0.00000000,
4.2770,-0.1452,1.2520,0.0943,-0.3644,1.6471,-0.0721,-0.0029,-0.7366,0.1767,49.28016353,-122.98106651,0.00000000,
4.2960,-0.1452,1.2520,0.0943,-0.3644,1.6471,-0.0721,-0.1427,-0.2210,0.1577,49.28016353,-122.98106651,0.00000000,
4.3150,-0.1452,1.2520,0.0943,1.8398,2.1482,-0.8135,-0.1427,-0.2210,0.1577,49.28016353,-122.98106651,0.00000000,
4.3520,-0.0668,1.1843,0.2810,1.8398,2.1482,-0.8135,-0.1427,-0.2210,0.1577,49.28016353,-122.98106651,0.00000000,
4.3710,-0.0668,1.1843,0.2810,1.8398,2.1482,-0.8135,-0.0350,0.3696,-0.2830,49.28016353,-122.98106651,0.00000000,
4.3920,-0.0668,1.1843,0.2810,1.8482,3.5518,-0.3083,-0.0350,0.3696,-0.2830,49.28016353,-122.98106651,0.00000000,
4.4110,-0.3868,0.6985,0.2187,1.8482,3.5518,-0.3083,-0.0350,0.3696,-0.2830,49.28016353,-122.98106651,0.00000000,
4.4300,-0.3868,0.6985,0.2187,1.8482,3.5518,-0.3083,0.1840,0.8653,0.0402,49.28016353,-122.98106651,0.00000000,
4.4490,-0.3868,0.6985,0.2187,1.5722,-0.3976,1.5987,0.1840,0.8653,0.0402,49.28016353,-122.98106651,0.00000000,
4.4800,-0.6299,0.7356,-0.1030,1.5722,-0.3976,1.5987,0.1840,0.8653,0.0402,49.28016353,-122.98106651,0.00000000,
4.4950,-0.6299,0.7356,-0.1030,1.5722,-0.3976,1.5987,-0.4845,0.2506,-0.2481,49.28016353,-122.98106651,0.00000000,
4.5140,-0.6299,0.7356,-0.1030,-2.3753,-2.3093,-2.2091,-0.4845,0.2506,-0.2481,49.28016353,-122.98106651,0.00000000,
4.5520,-0.3032,0.9106,0.2326,-2.3753,-2.3093,-2.2091,-0.4845,0.2506,-0.2481,49.28016353,-122.98106651,0.00000000,
4.5750,-0.3032,0.9106,0.2326,-2.3753,-2.3093,-2.2091,-0.5689,0.4766,-0.0875,49.28016353,-122.98106651,0.00000000,
4.5910,-0.3032,0.9106,0.2326,-0.7254,-1.2017,-0.1885,-0.5689,0.4766,-0.0875,49.28016353,-122.98106651,0.00000000,
4.6090,-0.4094,0.9821,0.1917,-0.7254,-1.2017,-0.1885,-0.5689,0.4766,-0.0875,49.28016353,-122.98106651,0.00000000,
4.6280,-0.4094,0.9821,0.1917,-0.7254,-1.2017,-0.1885,-0.5869,0.3375,-0.1003,49.28016353,-122.98106651,0.00000000,
4.6470,-0.4094,0.9821,0.1917,0.0751,0.8469,-0.6709,-0.5869,0.3375,-0.1003,49.28016353,-122.98106651,0.00000000,
4.6850,-0.3921,0.8491,0.2588,0.0751,0.8469,-0.6709,-0.5869,0.3375,-0.1003,49.28016353,-122.98106651,0.00000000,
4.7040,-0.3921,0.8491,0.2588,0.0751,0.8469,-0.6709,-0.1195,-0.2213,-0.0303,49.28016353,-122.98106651,0.00000000,
4.7240,-0.3921,0.8491,0.2588,-0.4208,-0.2901,0.2074,-0.1195,-0.2213,-0.0303,49.28016353,-122.98106651,0.00000000,
4.7420,-0.3135,1.1420,0.2222,-0.4208,-0.2901,0.2074,-0.1195,-0.2213,-0.0303,49.28016353,-122.98106651,0.00000000,
4.7630,-0.3135,1.1420,0.2222,-0.4208,-0.2901,0.2074,0.2036,-0.6364,0.2118,49.28016353,-122.98106651,0.00000000,
4.7820,-0.3135,1.1420,0.2222,-0.3141,0.7014,-0.1949,0.2036,-0.6364,0.2118,49.28016353,-122.98106651,0.00000000,
4.8190,-0.1107,1.3005,0.2588,-0.3141,0.7014,-0.1949,0.2036,-0.6364,0.2118,49.28016353,-122.98106651,0.00000000,
4.8370,-0.1107,1.3005,0.2588,-0.3141,0.7014,-0.1949,0.1817,-0.5039,-0.3141,49.28016353,-122.98106651,0.00000000,
4.8580,-0.1107,1.3005,0.2588,1.5793,3.5625,0.2392,0.1817,-0.5039,-0.3141,49.28016353,-122.98106651,0.00000000,
4.8760,-0.1891,1.1933,0.1176,1.5793,3.5625,0.2392,0.1817,-0.5039,-0.3141,49.28016353,-122.98106651,0.00000000,
4.8950,-0.1891,1.1933,0.1176,1.5793,3.5625,0.2392,-0.1583,-1.6371,-2.2256,49.28016353,-122.98106651,0.00000000,
4.9140,-0.1891,1.1933,0.1176,4.2576,4.6847,-1.7298,-0.1583,-1.6371,-2.2256,49.28016353,-122.98106651,0.00000000,
4.9530,-0.3846,0.7783,0.1863,4.2576,4.6847,-1.7298,-0.1583,-1.6371,-2.2256,49.28016353,-122.98106651,0.00000000,
4.9710,-0.3846,0.7783,0.1863,4.2576,4.6847,-1.7298,-1.3999,-1.9031,-3.3195,49.28016353,-122.98106651,0.00000000,
4.9930,-0.3846,0.7783,0.1863,2.6598,1.8772,-2.6344,-1.3999,-1.9031,-3.3195,49.28016353,-122.98106651,0.00000000,
5.0090,-0.5541,0.5396,0.6069,2.6598,1.8772,-2.6344,-1.3999,-1.9031,-3.3195,49.28016353,-122.98106651,0.00000000,
5.0280,-0.5541,0.5396,0.6069,2.6598,1.8772,-2.6344,-0.2572,-0.9800,-1.8489,49.28016353,-122.98106651,0.00000000,
5.0490,-0.5541,0.5396,0.6069,0.8600,0.9305,-0.6022,-0.2572,-0.9800,-1.8489,49.28016353,-122.98106651,0.00000000,
5.0850,-0.5793,0.6476,0.5481,0.8600,0.9305,-0.6022,-0.2572,-0.9800,-1.8489,49.28016353,-122.98106651,0.00000000,
5.1040,-0.5793,0.6476,0.5481,0.8600,0.9305,-0.6022,-0.2919,-1.5495,-1.7674,49.28016353,-122.98106651,0.00000000,
5.1250,-0.5793,0.6476,0.5481,1.6054,0.8224,-0.7351,-0.2919,-1.5495,-1.7674,49.28016353,-122.98106651,0.00000000,
5.1430,-0.5610,0.4216,0.6114,1.6054,0.8224,-0.7351,-0.2919,-1.5495,-1.7674,49.28016353,-122.98106651,0.00000000,
5.1620,-0.5610,0.4216,0.6114,1.6054,0.8224,-0.7351,0.6881,-2.1482,-1.6564,49.28016353,-122.98106651,0.00000000,
5.1810,-0.5610,0.4216,0.6114,-0.3393,-0.1240,-0.2937,0.6881,-2.1482,-1.6564,49.28016353,-122.98106651,0.00000000,
5.2180,-0.6509,0.3222,0.7560,-0.3393,-0.1240,-0.2937,0.6881,-2.1482,-1.6564,49.28016353,-122.98106651,0.00000000,
5.2370,-0.6509,0.3222,0.7560,-0.3393,-0.1240,-0.2937,0.7617,-2.4798,-1.7840,49.28016353,-122.98106651,0.00000000,
5.2580,-0.6509,0.3222,0.7560,-0.9217,-0.9672,-0.0666,0.7617,-2.4798,-1.7840,49.28016353,-122.98106651,0.00000000,
5.2760,-0.5795,0.3761,0.7418,-0.9217,-0.9672,-0.0666,0.7617,-2.4798,-1.7840,49.28016353,-122.98106651,0.00000000,
5.2940,-0.5795,0.3761,0.7418,-0.9217,-0.9672,-0.0666,0.2699,-1.7042,-1.1574,49.28016353,-122.98106651,0.00000000,
5.3140,-0.5795,0.3761,0.7418,-1.2629,-0.8794,0.4368,0.2699,-1.7042,-1.1574,49.28016353,-122.98106651,0.00000000,
5.3520,-0.4832,0.3427,0.9076,-1.2629,-0.8794,0.4368,0.2699,-1.7042,-1.1574,49.28016353,-122.98106651,0.00000000,
5.3710,-0.4832,0.3427,0.9076,-1.2629,-0.8794,0.4368,-0.7152,-1.3101,-0.6628,49.28016353,-122.98106651,0.00000000,
5.3900,-0.4832,0.3427,0.9076,-0.1659,0.0484,0.1297,-0.7152,-1.3101,-0.6628,49.28016353,-122.98106651,0.00000000,
5.4090,-0.4984,0.2696,0.7915,-0.1659,0.0484,0.1297,-0.7152,-1.3101,-0.6628,49.28016353,-122.98106651,0.00000000,
5.4280,-0.4984,0.2696,0.7915,-0.1659,0.0484,0.1297,-0.4171,-1.2080,-0.2589,49.28016353,-122.98106651,0.00000000,
5.4470,-0.4984,0.2696,0.7915,-0.9156,-0.4684,-0.3314,-0.4171,-1.2080,-0.2589,49.28016353,-122.98106651,0.00000000,
5.4790,-0.4771,0.2943,0.6835,-0.9156,-0.4684,-0.3314,-0.4171,-1.2080,-0.2589,49.28016353,-122.98106651,0.00000000,
5.4950,-0.4771,0.2943,0.6835,-0.9156,-0.4684,-0.3314,-0.1305,-0.5465,-0.0659,49.28016353,-122.98106651,0.00000000,
5.5140,-0.4771,0.2943,0.6835,-0.6665,-0.8297,-1.3967,-0.1305,-0.5465,-0.0659,49.28016353,-122.98106651,0.00000000,
5.5520,-0.5367,0.2825,0.6079,-0.6665,-0.8297,-1.3967,-0.1305,-0.5465,-0.0659,49.28016353,-122.98106651,0.00000000,
5.5760,-0.5367,0.2825,0.6079,-0.6665,-0.8297,-1.3967,-0.2260,1.2290,0.6427,49.28016353,-122.98106651,0.00000000,
5.5900,-0.5367,0.2825,0.6079,-0.6483,0.3296,-2.3234,-0.2260,1.2290,0.6427,49.28016353,-122.98106651,0.00000000,
5.6080,-0.6590,0.2496,0.7239,-0.6483,0.3296,-2.3234,-0.2260,1.2290,0.6427,49.28016353,-122.98106651,0.00000000,
5.6270,-0.6590,0.2496,0.7239,-0.6483,0.3296,-2.3234,-0.3125,2.7548,1.1536,49.28016353,-122.98106651,0.00000000,
5.6480,-0.6590,0.2496,0.7239,0.1987,-1.6052,0.2070,-0.3125,2.7548,1.1536,49.28016353,-122.98106651,0.00000000,
5.6850,-0.6232,0.3910,0.5616,0.1987,-1.6052,0.2070,-0.3125,2.7548,1.1536,49.28016353,-122.98106651,0.00000000,
5.7040,-0.6232,0.3910,0.5616,0.1987,-1.6052,0.2070,0.3130,2.6229,1.1037,49.28016353,-122.98106651,0.00000000,
5.7230,-0.6232,0.3910,0.5616,0.2701,-1.0040,0.2891,0.3130,2.6229,1.1037,49.28016353,-122.98106651,0.00000000,
5.7430,-0.8923,0.5039,0.4289,0.2701,-1.0040,0.2891,0.3130,2.6229,1.1037,49.28016353,-122.98106651,0.00000000,
5.7610,-0.8923,0.5039,0.4289,0.2701,-1.0040,0.2891,-0.8402,3.5920,1.4642,49.28016353,-122.98106651,0.00000000,
5.7810,-0.8923,0.5039,0.4289,-0.4213,0.0791,0.0742,-0.8402,3.5920,1.4642,49.28016353,-122.98106651,0.00000000,
5.8190,-0.4323,0.5601,0.4453,-0.4213,0.0791,0.0742,-0.8402,3.5920,1.4642,49.28016353,-122.98106651,0.00000000,
5.8370,-0.4323,0.5601,0.4453,-0.4213,0.0791,0.0742,-0.6768,1.4491,1.7456,49.28016353,-122.98106651,0.00000000,
5.8560,-0.4323,0.5601,0.4453,0.5672,-0.6532,0.3221,-0.6768,1.4491,1.7456,49.28016353,-122.98106651,0.00000000,
5.8750,-0.5306,0.5245,0.3000,0.5672,-0.6532,0.3221,-0.6768,1.4491,1.7456,49.28016353,-122.98106651,0.00000000,
5.8940,-0.5306,0.5245,0.3000,0.5672,-0.6532,0.3221,0.3048,1.5392,1.1785,49.28016353,-122.98106651,0.00000000,
5.9130,-0.5306,0.5245,0.3000,2.7398,0.2322,0.5878,0.3048,1.5392,1.1785,49.28016353,-122.98106651,0.00000000,
5.9520,-0.7236,0.5289,0.3638,2.7398,0.2322,0.5878,0.3048,1.5392,1.1785,49.28016353,-122.98106651,0.00000000,
5.9700,-0.7236,0.5289,0.3638,2.7398,0.2322,0.5878,0.3187,0.9674,1.1805,49.28016353,-122.98106651,0.00000000,
5.9900,-0.7236,0.5289,0.3638,0.7023,-2.1060,-0.1144,0.3187,0.9674,1.1805,49.28016353,-122.98106651,0.00000000,
6.0080,-0.8342,0.5907,0.4819,0.7023,-2.1060,-0.1144,0.3187,0.9674,1.1805,49.28016353,-122.98106651,0.00000000,
6.0270,-0.8342,0.5907,0.4819,0.7023,-2.1060,-0.1144,-0.0937,0.8967,0.0514,49.28016353,-122.98106651,0.00000000,
6.0470,-0.8342,0.5907,0.4819,-0.8674,-0.2661,1.8841,-0.0937,0.8967,0.0514,49.28016353,-122.98106651,0.00000000,
6.0840,-0.8621,0.6624,0.4603,-0.8674,-0.2661,1.8841,-0.0937,0.8967,0.0514,49.28016353,-122.98106651,0.00000000,
6.1030,-0.8621,0.6624,0.4603,-0.8674,-0.2661,1.8841,-0.5195,0.4155,0.0453,49.28016353,-122.98106651,0.00000000,
6.1220,-0.8621,0.6624,0.4603,-1.4640,-0.5795,2.5326,-0.5195,0.4155,0.0453,49.28016353,-122.98106651,0.00000000,
6.1420,-0.8934,0.8387,0.3737,-1.4640,-0.5795,2.5326,-0.5195,0.4155,0.0453,49.28016353,-122.98106651,0.00000000,
6.1610,-0.8934,0.8387,0.3737,-1.4640,-0.5795,2.5326,0.2165,0.8243,-0.0339,49.28016353,-122.98106651,0.00000000,
6.1800,-0.8934,0.8387,0.3737,-1.7611,1.6268,2.0656,0.2165,0.8243,-0.0339,49.28016353,-122.98106651,0.00000000,
6.2170,-0.7612,0.8192,0.1929,-1.7611,1.6268,2.0656,0.2165,0.8243,-0.0339,49.28016353,-122.98106651,0.00000000,
6.2360,-0.7612,0.8192,0.1929,-1.7611,1.6268,2.0656,0.3421,0.9266,-0.5460,49.28016353,-122.98106651,0.00000000,
6.2560,-0.7612,0.8192,0.1929,0.4513,2.2366,0.9921,0.3421,0.9266,-0.5460,49.28016353,-122.98106651,0.00000000,
6.2740,-0.7476,0.5040,0.0780,0.4513,2.2366,0.9921,0.3421,0.9266,-0.5460,49.28016353,-122.98106651,0.00000000,
6.2930,-0.7476,0.5040,0.0780,0.4513,2.2366,0.9921,0.3032,0.7988,-0.4551,49.28016353,-122.98106651,0.00000000,
6.3130,-0.7476,0.5040,0.0780,-0.1277,0.6284,-0.2657,0.3032,0.7988,-0.4551,49.28016353,-122.98106651,0.00000000,
6.3510,-0.6218,0.5217,0.1287,-0.1277,0.6284,-0.2657,0.3032,0.7988,-0.4551,49.28016353,-122.98106651,0.00000000,
6.3710,-0.6218,0.5217,0.1287,-0.1277,0.6284,-0.2657,-0.2782,-0.7770,-0.0490,49.28015752,-122.98105066,0.54000002,
6.3900,-0.6218,0.5217,0.1287,1.9366,-1.4285,-0.9963,-0.2782,-0.7770,-0.0490,49.28015752,-122.98105066,0.54000002,
6.4080,-0.8324,0.4303,0.2198,1.9366,-1.4285,-0.9963,-0.2782,-0.7770,-0.0490,49.28015752,-122.98105066,0.54000002,
6.4270,-0.8324,0.4303,0.2198,1.9366,-1.4285,-0.9963,-0.6717,-0.2616,0.3544,49.28015752,-122.98105066,0.54000002,
6.4470,-0.8324,0.4303,0.2198,-0.2460,-0.9728,0.4470,-0.6717,-0.2616,0.3544,49.28015752,-122.98105066,0.54000002,
6.4800,-0.9796,0.4907,0.1802,-0.2460,-0.9728,0.4470,-0.6717,-0.2616,0.3544,49.28015752,-122.98105066,0.54000002,
6.4930,-0.9796,0.4907,0.1802,-0.2460,-0.9728,0.4470,-0.6953,0.5852,0.4828,49.28015752,-122.98105066,0.54000002,
6.5130,-0.9796,0.4907,0.1802,-1.4708,-1.7736,-0.4341,-0.6953,0.5852,0.4828,49.28015752,-122.98105066,0.54000002,
6.5510,-0.7888,0.4010,0.2343,-1.4708,-1.7736,-0.4341,-0.6953,0.5852,0.4828,49.28015752,-122.98105066,0.54000002,
6.5690,-0.7888,0.4010,0.2343,-1.4708,-1.7736,-0.4341,-0.5407,0.1728,0.2165,49.28015752,-122.98105066,0.54000002,
6.5900,-0.7888,0.4010,0.2343,-1.3937,-1.6421,0.0218,-0.5407,0.1728,0.2165,49.28015752,-122.98105066,0.54000002,
6.6080,-0.8285,0.4678,0.1811,-1.3937,-1.6421,0.0218,-0.5407,0.1728,0.2165,49.28015752,-122.98105066,0.54000002,
6.6270,-0.8285,0.4678,0.1811,-1.3937,-1.6421,0.0218,-0.2916,0.0848,0.6176,49.28015752,-122.98105066,0.54000002,
6.6460,-0.8285,0.4678,0.1811,-0.9415,-1.7535,-0.0490,-0.2916,0.0848,0.6176,49.28015752,-122.98105066,0.54000002,
6.6840,-0.4415,0.6500,0.1534,-0.9415,-1.7535,-0.0490,-0.2916,0.0848,0.6176,49.28015752,-122.98105066,0.54000002,
6.7030,-0.4415,0.6500,0.1534,-0.9415,-1.7535,-0.0490,0.3041,-0.0756,0.8680,49.28015752,-122.98105066,0.54000002,
6.7230,-0.4415,0.6500,0.1534,0.6827,-1.6587,-0.8093,0.3041,-0.0756,0.8680,49.28015752,-122.98105066,0.54000002,
6.7420,-0.4316,1.0317,0.2366,0.6827,-1.6587,-0.8093,0.3041,-0.0756,0.8680,49.28015752,-122.98105066,0.54000002,
6.7600,-0.4316,1.0317,0.2366,0.6827,-1.6587,-0.8093,-0.0579,0.7478,1.3335,49.28015752,-122.98105066,0.54000002,
6.7800,-0.4316,1.0317,0.2366,3.2495,2.0287,-0.9841,-0.0579,0.7478,1.3335,49.28015752,-122.98105066,0.54000002,
6.8170,-0.9170,1.3472,-0.0168,3.2495,2.0287,-0.9841,-0.0579,0.7478,1.3335,49.28015752,-122.98105066,0.54000002,
6.8360,-0.9170,1.3472,-0.0168,3.2495,2.0287,-0.9841,0.0960,-0.0772,0.4834,49.28015752,-122.98105066,0.54000002,
6.8550,-0.9170,1.3472,-0.0168,-2.3758,3.8697,-1.0968,0.0960,-0.0772,0.4834,49.28015752,-122.98105066,0.54000002,
6.8740,-0.4819,1.0145,0.4789,-2.3758,3.8697,-1.0968,0.0960,-0.0772,0.4834,49.28015752,-122.98105066,0.54000002,
6.8940,-0.4819,1.0145,0.4789,-2.3758,3.8697,-1.0968,0.9654,0.4408,0.2703,49.28015752,-122.98105066,0.54000002,
6.9120,-0.4819,1.0145,0.4789,-0.7314,3.7071,3.9339,0.9654,0.4408,0.2703,49.28015752,-122.98105066,0.54000002,
6.9510,-0.3678,0.4641,-0.2323,-0.7314,3.7071,3.9339,0.9654,0.4408,0.2703,49.28015752,-122.98105066,0.54000002,
6.9690,-0.3678,0.4641,-0.2323,-0.7314,3.7071,3.9339,0.4463,-0.3224,0.9796,49.28015752,-122.98105066,0.54000002,
6.9880,-0.3678,0.4641,-0.2323,2.1969,-1.5828,-1.3203,0.4463,-0.3224,0.9796,49.28015752,-122.98105066,0.54000002,
7.0070,-0.7781,0.4838,0.0968,2.1969,-1.5828,-1.3203,0.4463,-0.3224,0.9796,49.28015752,-122.98105066,0.54000002,
7.0270,-0.7781,0.4838,0.0968,2.1969,-1.5828,-1.3203,-0.3792,-0.6458,0.1683,49.28015752,-122.98105066,0.54000002,
7.0450,-0.7781,0.4838,0.0968,-1.4330,-4.4730,-1.8845,-0.3792,-0.6458,0.1683,49.28015752,-122.98105066,0.54000002,
7.0840,-0.6629,0.7954,0.0910,-1.4330,-4.4730,-1.8845,-0.3792,-0.6458,0.1683,49.28015752,-122.98105066,0.54000002,
7.1030,-0.6629,0.7954,0.0910,-1.4330,-4.4730,-1.8845,-0.3558,-0.8453,0.2080,49.28015752,-122.98105066,0.54000002,
7.1220,-0.6629,0.7954,0.0910,-2.6351,-1.6286,-1.0434,-0.3558,-0.8453,0.2080,49.28015752,-122.98105066,0.54000002,
7.1420,-0.3927,1.0594,0.3130,-2.6351,-1.6286,-1.0434,-0.3558,-0.8453,0.2080,49.28015752,-122.98105066,0.54000002,
7.1600,-0.3927,1.0594,0.3130,-2.6351,-1.6286,-1.0434,0.1184,-0.8027,0.3303,49.28015752,-122.98105066,0.54000002,
7.1790,-0.3927,1.0594,0.3130,0.5432,1.0479,0.2352,0.1184,-0.8027,0.3303,49.28015752,-122.98105066,0.54000002,
7.2170,-0.4240,1.2492,0.3617,0.5432,1.0479,0.2352,0.1184,-0.8027,0.3303,49.28015752,-122.98105066,0.54000002,
7.2360,-0.4240,1.2492,0.3617,0.5432,1.0479,0.2352,0.6769,0.3379,-0.0460,49.28015752,-122.98105066,0.54000002,
7.2550,-0.4240,1.2492,0.3617,0.9672,3.3539,1.9634,0.6769,0.3379,-0.0460,49.28015752,-122.98105066,0.54000002,
7.2740,-0.5034,0.8868,0.1044,0.9672,3.3539,1.9634,0.6769,0.3379,-0.0460,49.28015752,-122.98105066,0.54000002,
7.2930,-0.5034,0.8868,0.1044,0.9672,3.3539,1.9634,1.4530,0.7084,-0.4352,49.28015752,-122.98105066,0.54000002,
7.3120,-0.5034,0.8868,0.1044,-0.2466,3.0005,2.4331,1.4530,0.7084,-0.4352,49.28015752,-122.98105066,0.54000002,
7.3500,-0.4347,0.4713,-0.0841,-0.2466,3.0005,2.4331,1.4530,0.7084,-0.4352,49.28015752,-122.98105066,0.54000002,
7.3690,-0.4347,0.4713,-0.0841,-0.2466,3.0005,2.4331,0.4099,-0.2281,0.0847,49.28015752,-122.98105066,0.54000002,
7.3890,-0.4347,0.4713,-0.0841,1.4724,-3.5825,-1.3675,0.4099,-0.2281,0.0847,49.28015752,-122.98105066,0.54000002,
7.4080,-0.5470,0.7923,-0.0073,1.4724,-3.5825,-1.3675,0.4099,-0.2281,0.0847,49.28015752,-122.98105066,0.54000002,
7.4260,-0.5470,0.7923,-0.0073,1.4724,-3.5825,-1.3675,0.0416,-0.3557,0.4045,49.28015752,-122.98105066,0.54000002,
7.4460,-0.5470,0.7923,-0.0073,-1.3726,-2.6942,-0.8166,0.0416,-0.3557,0.4045,49.28015752,-122.98105066,0.54000002,
7.4790,-0.3888,0.7815,-0.0309,-1.3726,-2.6942,-0.8166,0.0416,-0.3557,0.4045,49.28015752,-122.98105066,0.54000002,
7.4930,-0.3888,0.7815,-0.0309,-1.3726,-2.6942,-0.8166,-0.2426,-0.7634,0.3917,49.28015752,-122.98105066,0.54000002,
7.5120,-0.3888,0.7815,-0.0309,0.8983,-0.4833,-0.8534,-0.2426,-0.7634,0.3917,49.28015752,-122.98105066,0.54000002,
7.5500,-0.4611,1.0310,0.2001,0.8983,-0.4833,-0.8534,-0.2426,-0.7634,0.3917,49.28015752,-122.98105066,0.54000002,
7.5690,-0.4611,1.0310,0.2001,0.8983,-0.4833,-0.8534,0.0901,-1.0638,0.4207,49.28015752,-122.98105066,0.54000002,
7.5880,-0.4611,1.0310,0.2001,-0.7307,0.9033,-0.5144,0.0901,-1.0638,0.4207,49.28015752,-122.98105066,0.54000002,
7.6070,-0.3252,0.8325,0.0922,-0.7307,0.9033,-0.5144,0.0901,-1.0638,0.4207,49.28015752,-122.98105066,0.54000002,
7.6260,-0.3252,0.8325,0.0922,-0.7307,0.9033,-0.5144,0.2189,-0.8645,0.0797,49.28015752,-122.98105066,0.54000002,
7.6450,-0.3252,0.8325,0.0922,1.0302,0.1518,0.3451,0.2189,-0.8645,0.0797,49.28015752,-122.98105066,0.54000002,
7.6840,-0.5430,1.1158,0.0278,1.0302,0.1518,0.3451,0.2189,-0.8645,0.0797,49.28015752,-122.98105066,0.54000002,
7.7020,-0.5430,1.1158,0.0278,1.0302,0.1518,0.3451,-0.3871,-0.2763,0.4801,49.28015752,-122.98105066,0.54000002,
7.7220,-0.5430,1.1158,0.0278,-1.5418,0.6137,-1.7123,-0.3871,-0.2763,0.4801,49.28015752,-122.98105066,0.54000002,
7.7410,-0.0788,1.0151,0.2442,-1.5418,0.6137,-1.7123,-0.3871,-0.2763,0.4801,49.28015752,-122.98105066,0.54000002,
7.7590,-0.0788,1.0151,0.2442,-1.5418,0.6137,-1.7123,0.1112,-0.0981,0.1053,49.28015752,-122.98105066,0.54000002,
7.7780,-0.0788,1.0151,0.2442,1.5675,1.6756,0.8204,0.1112,-0.0981,0.1053,49.28015752,-122.98105066,0.54000002,
7.8170,-0.3821,1.4561,0.1551,1.5675,1.6756,0.8204,0.1112,-0.0981,0.1053,49.28015752,-122.98105066,0.54000002,
7.8360,-0.3821,1.4561,0.1551,1.5675,1.6756,0.8204,-0.1984,0.3733,-0.0383,49.28015752,-122.98105066,0.54000002,
7.8550,-0.3821,1.4561,0.1551,2.0888,2.2373,-0.4614,-0.1984,0.3733,-0.0383,49.28015752,-122.98105066,0.54000002,
7.8730,-0.1924,0.5129,0.3095,2.0888,2.2373,-0.4614,-0.1984,0.3733,-0.0383,49.28015752,-122.98105066,0.54000002,
7.8930,-0.1924,0.5129,0.3095,2.0888,2.2373,-0.4614,0.3402,0.0909,-1.6515,49.28015752,-122.98105066,0.54000002,
7.9120,-0.1924,0.5129,0.3095,1.7618,2.8446,1.8652,0.3402,0.0909,-1.6515,49.28015752,-122.98105066,0.54000002,
7.9500,-1.1074,0.3278,0.0316,1.7618,2.8446,1.8652,0.3402,0.0909,-1.6515,49.28015752,-122.98105066,0.54000002,
7.9690,-1.1074,0.3278,0.0316,1.7618,2.8446,1.8652,0.2727,-0.1498,0.3231,49.28015752,-122.98105066,0.54000002,
7.9880,-1.1074,0.3278,0.0316,-3.3077,-6.0954,0.0980,0.2727,-0.1498,0.3231,49.28015752,-122.98105066,0.54000002,
8.0070,-0.3647,0.9183,-0.0560,-3.3077,-6.0954,0.0980,0.2727,-0.1498,0.3231,49.28015752,-122.98105066,0.54000002,
8.0250,-0.3647,0.9183,-0.0560,-3.3077,-6.0954,0.0980,-0.2277,-0.4336,0.9680,49.28015752,-122.98105066,0.54000002,
8.0440,-0.3647,0.9183,-0.0560,-2.8192,-3.0591,-1.6558,-0.2277,-0.4336,0.9680,49.28015752,-122.98105066,0.54000002,
8.0820,-0.1568,0.8865,0.2440,-2.8192,-3.0591,-1.6558,-0.2277,-0.4336,0.9680,49.28015752,-122.98105066,0.54000002,
8.1020,-0.1568,0.8865,0.2440,-2.8192,-3.0591,-1.6558,-0.0347,-0.2337,0.8153,49.28015752,-122.98105066,0.54000002,
8.1220,-0.1568,0.8865,0.2440,2.0494,0.5597,-0.7927,-0.0347,-0.2337,0.8153,49.28015752,-122.98105066,0.54000002,
8.1400,-0.3696,1.0526,0.0970,2.0494,0.5597,-0.7927,-0.0347,-0.2337,0.8153,49.28015752,-122.98105066,0.54000002,
8.1590,-0.3696,1.0526,0.0970,2.0494,0.5597,-0.7927,-0.0958,-0.4748,0.8686,49.28015752,-122.98105066,0.54000002,
8.1780,-0.3696,1.0526,0.0970,-0.8073,-0.0397,-0.0664,-0.0958,-0.4748,0.8686,49.28015752,-122.98105066,0.54000002,
8.2160,-0.1236,1.2851,0.2347,-0.8073,-0.0397,-0.0664,-0.0958,-0.4748,0.8686,49.28015752,-122.98105066,0.54000002,
8.2350,-0.1236,1.2851,0.2347,-0.8073,-0.0397,-0.0664,0.1570,-0.3196,0.1664,49.28015752,-122.98105066,0.54000002,
8.2540,-0.1236,1.2851,0.2347,0.7228,2.7748,-0.0672,0.1570,-0.3196,0.1664,49.28015752,-122.98105066,0.54000002,
8.2730,-0.2447,1.1147,0.1654,0.7228,2.7748,-0.0672,0.1570,-0.3196,0.1664,49.28015752,-122.98105066,0.54000002,
8.2930,-0.2447,1.1147,0.1654,0.7228,2.7748,-0.0672,0.1840,-0.1138,0.1980,49.28015752,-122.98105066,0.54000002,
8.3120,-0.2447,1.1147,0.1654,1.0088,2.3489,0.6157,0.1840,-0.1138,0.1980,49.28015752,-122.98105066,0.54000002,
8.3490,-0.2773,0.7383,0.1885,1.0088,2.3489,0.6157,0.1840,-0.1138,0.1980,49.28015752,-122.98105066,0.54000002,
8.3680,-0.2773,0.7383,0.1885,1.0088,2.3489,0.6157,0.4217,0.0576,0.3516,49.28015752,-122.98105066,0.54000002,
8.3870,-0.2773,0.7383,0.1885,-0.9451,-0.9215,0.8848,0.4217,0.0576,0.3516,49.28015752,-122.98105066,0.54000002,
8.4070,-0.3488,0.9893,0.0743,-0.9451,-0.9215,0.8848,0.4217,0.0576,0.3516,49.28015752,-122.98105066,0.54000002,
8.4260,-0.3488,0.9893,0.0743,-0.9451,-0.9215,0.8848,0.3652,-0.3133,-0.0463,49.28015752,-122.98105066,0.54000002,
8.4450,-0.3488,0.9893,0.0743,0.0743,-1.2447,-0.1392,0.3652,-0.3133,-0.0463,49.28015752,-122.98105066,0.54000002,
8.4800,-0.2278,1.0237,0.0996,0.0743,-1.2447,-0.1392,0.3652,-0.3133,-0.0463,49.28015752,-122.98105066,0.54000002,
8.4930,-0.2278,1.0237,0.0996,0.0743,-1.2447,-0.1392,-0.0363,-0.0293,0.0289,49.28015752,-122.98105066,0.54000002,
8.5130,-0.2278,1.0237,0.0996,-0.8225,0.8839,-0.2669,-0.0363,-0.0293,0.0289,49.28015752,-122.98105066,0.54000002,
8.5500,-0.1875,0.9735,0.0770,-0.8225,0.8839,-0.2669,-0.0363,-0.0293,0.0289,49.28015752,-122.98105066,0.54000002,
8.5700,-0.1875,0.9735,0.0770,-0.8225,0.8839,-0.2669,-0.0644,0.2431,0.0111,49.28015752,-122.98105066,0.54000002,
8.5880,-0.1875,0.9735,0.0770,0.5381,0.1955,-0.2589,-0.0644,0.2431,0.0111,49.28015752,-122.98105066,0.54000002,
8.6060,-0.2527,0.9831,0.0442,0.5381,0.1955,-0.2589,-0.0644,0.2431,0.0111,49.28015752,-122.98105066,0.54000002,
8.6260,-0.2527,0.9831,0.0442,0.5381,0.1955,-0.2589,-0.0324,0.2229,0.1231,49.28015752,-122.98105066,0.54000002,
8.6440,-0.2527,0.9831,0.0442,0.2480,0.1341,-0.7516,-0.0324,0.2229,0.1231,49.28015752,-122.98105066,0.54000002,
8.6820,-0.2259,0.9809,0.0797,0.2480,0.1341,-0.7516,-0.0324,0.2229,0.1231,49.28015752,-122.98105066,0.54000002,
8.7020,-0.2259,0.9809,0.0797,0.2480,0.1341,-0.7516,-0.0951,0.0057,0.1806,49.28015752,-122.98105066,0.54000002,
8.7230,-0.2259,0.9809,0.0797,-0.5991,-0.1019,-0.8641,-0.0951,0.0057,0.1806,49.28015752,-122.98105066,0.54000002,
8.7400,-0.2382,0.9772,0.1370,-0.5991,-0.1019,-0.8641,-0.0951,0.0057,0.1806,49.28015752,-122.98105066,0.54000002,
8.7600,-0.2382,0.9772,0.1370,-0.5991,-0.1019,-0.8641,-0.0923,0.3585,0.2813,49.28015752,-122.98105066,0.54000002,
8.7780,-0.2382,0.9772,0.1370,-0.2235,0.0590,0.6941,-0.0923,0.3585,0.2813,49.28015752,-122.98105066,0.54000002,
8.8170,-0.0861,1.0024,0.1392,-0.2235,0.0590,0.6941,-0.0923,0.3585,0.2813,49.28015752,-122.98105066,0.54000002,
8.8360,-0.0861,1.0024,0.1392,-0.2235,0.0590,0.6941,-0.0898,0.2593,0.0840,49.28015752,-122.98105066,0.54000002,
8.8540,-0.0861,1.0024,0.1392,0.8631,0.4842,-0.7968,-0.0898,0.2593,0.0840,49.28015752,-122.98105066,0.54000002,
8.8730,-0.2275,0.9772,0.0356,0.8631,0.4842,-0.7968,-0.0898,0.2593,0.0840,49.28015752,-122.98105066,0.54000002,
8.8930,-0.2275,0.9772,0.0356,0.8631,0.4842,-0.7968,0.0875,0.1490,0.1100,49.28015752,-122.98105066,0.54000002,
8.9120,-0.2275,0.9772,0.0356,0.4367,-0.3162,0.3504,0.0875,0.1490,0.1100,49.28015752,-122.98105066,0.54000002,
8.9500,-0.1545,1.0428,0.1565,0.4367,-0.3162,0.3504,0.0875,0.1490,0.1100,49.28015752,-122.98105066,0.54000002,
8.9690,-0.1545,1.0428,0.1565,0.4367,-0.3162,0.3504,0.0283,-0.0569,0.1331,49.28015752,-122.98105066,0.54000002,
8.9880,-0.1545,1.0428,0.1565,-0.1029,0.4774,0.0926,0.0283,-0.0569,0.1331,49.28015752,-122.98105066,0.54000002,
9.0070,-0.1973,0.9547,0.1234,-0.1029,0.4774,0.0926,0.0283,-0.0569,0.1331,49.28015752,-122.98105066,0.54000002,
9.0260,-0.1973,0.9547,0.1234,-0.1029,0.4774,0.0926,0.0809,-0.1077,0.1453,49.28015752,-122.98105066,0.54000002,
9.0450,-0.1973,0.9547,0.1234,-0.0720,0.1803,0.4008,0.0809,-0.1077,0.1453,49.28015752,-122.98105066,0.54000002,
9.0840,-0.1783,0.9913,0.0827,-0.0720,0.1803,0.4008,0.0809,-0.1077,0.1453,49.28015752,-122.98105066,0.54000002,
9.1030,-0.1783,0.9913,0.0827,-0.0720,0.1803,0.4008,0.1905,-0.2845,0.0477,49.28015752,-122.98105066,0.54000002,
9.1210,-0.1783,0.9913,0.0827,-0.0637,-0.0925,-0.3637,0.1905,-0.2845,0.0477,49.28015752,-122.98105066,0.54000002,
9.1400,-0.1236,1.0093,0.0777,-0.0637,-0.0925,-0.3637,0.1905,-0.2845,0.0477,49.28015752,-122.98105066,0.54000002,
9.1590,-0.1236,1.0093,0.0777,-0.0637,-0.0925,-0.3637,0.2461,-0.2623,-0.0242,49.28015752,-122.98105066,0.54000002,
9.1780,-0.1236,1.0093,0.0777,0.5992,0.0393,0.4207,0.2461,-0.2623,-0.0242,49.28015752,-122.98105066,0.54000002,
9.2170,-0.1314,0.9927,0.0064,0.5992,0.0393,0.4207,0.2461,-0.2623,-0.0242,49.28015752,-122.98105066,0.54000002,
9.2350,-0.1314,0.9927,0.0064,0.5992,0.0393,0.4207,0.0610,0.0691,-0.0147,49.28015752,-122.98105066,0.54000002,
9.2540,-0.1314,0.9927,0.0064,0.2205,0.2805,-0.2895,0.0610,0.0691,-0.0147,49.28015752,-122.98105066,0.54000002,
9.2730,-0.1550,1.0202,0.0348,0.2205,0.2805,-0.2895,0.0610,0.0691,-0.0147,49.28015752,-122.98105066,0.54000002,
9.2920,-0.1550,1.0202,0.0348,0.2205,0.2805,-0.2895,-0.4309,0.0815,-0.0678,49.28015752,-122.98105066,0.54000002,
9.3110,-0.1550,1.0202,0.0348,0.8238,0.3496,-2.0190,-0.4309,0.0815,-0.0678,49.28015752,-122.98105066,0.54000002,
9.3520,-0.1422,0.9782,0.1449,0.8238,0.3496,-2.0190,-0.4309,0.0815,-0.0678,49.28015752,-122.98105066,0.54000002,
9.3680,-0.1422,0.9782,0.1449,0.8238,0.3496,-2.0190,0.1140,-0.1198,0.0744,49.28015752,-122.98105066,0.54000002,
9.3890,-0.1422,0.9782,0.1449,-0.6994,-0.2035,1.1919,0.1140,-0.1198,0.0744,49.28015752,-122.98105066,0.54000002,
9.4050,-0.2472,0.9278,0.1239,-0.6994,-0.2035,1.1919,0.1140,-0.1198,0.0744,49.28015752,-122.98105066,0.54000002,
9.4250,-0.2472,0.9278,0.1239,-0.6994,-0.2035,1.1919,0.2625,0.0073,0.1034,49.28015752,-122.98105066,0.54000002,
9.4450,-0.2472,0.9278,0.1239,0.4089,-0.1178,0.0980,0.2625,0.0073,0.1034,49.28015752,-122.98105066,0.54000002,
9.4800,-0.1407,1.0155,0.0334,0.4089,-0.1178,0.0980,0.2625,0.0073,0.1034,49.28015752,-122.98105066,0.54000002,
9.4920,-0.1407,1.0155,0.0334,0.4089,-0.1178,0.0980,0.2650,-0.0810,0.4600,49.28015752,-122.98105066,0.54000002,
9.5110,-0.1407,1.0155,0.0334,-1.0593,-0.5102,0.2640,0.2650,-0.0810,0.4600,49.28015752,-122.98105066,0.54000002,
9.5490,-0.0976,1.0183,0.0065,-1.0593,-0.5102,0.2640,0.2650,-0.0810,0.4600,49.28015752,-122.98105066,0.54000002,
9.5690,-0.0976,1.0183,0.0065,-1.0593,-0.5102,0.2640,0.0245,-0.0993,0.3108,49.28015752,-122.98105066,0.54000002,
9.5880,-0.0976,1.0183,0.0065,0.0919,0.4900,-0.4546,0.0245,-0.0993,0.3108,49.28015752,-122.98105066,0.54000002,
9.6060,-0.1407,0.9066,0.1398,0.0919,0.4900,-0.4546,0.0245,-0.0993,0.3108,49.28015752,-122.98105066,0.54000002,
9.6250,-0.1407,0.9066,0.1398,0.0919,0.4900,-0.4546,0.2660,0.0879,1.2784,49.28015752,-122.98105066,0.54000002,
9.6440,-0.1407,0.9066,0.1398,-1.0829,0.0912,0.3814,0.2660,0.0879,1.2784,49.28015752,-122.98105066,0.54000002,
9.6840,-0.0028,0.8640,-0.1087,-1.0829,0.0912,0.3814,0.2660,0.0879,1.2784,49.28015752,-122.98105066,0.54000002,
9.7020,-0.0028,0.8640,-0.1087,-1.0829,0.0912,0.3814,-0.0773,-0.2969,2.2948,49.28015752,-122.98105066,0.54000002,
9.7210,-0.0028,0.8640,-0.1087,-2.2179,-1.8715,-0.5546,-0.0773,-0.2969,2.2948,49.28015752,-122.98105066,0.54000002,
9.7400,0.3855,1.3235,0.0855,-2.2179,-1.8715,-0.5546,-0.0773,-0.2969,2.2948,49.28015752,-122.98105066,0.54000002,
9.7590,0.3855,1.3235,0.0855,-2.2179,-1.8715,-0.5546,-0.1968,-0.0716,0.6392,49.28015752,-122.98105066,0.54000002,
9.7770,0.3855,1.3235,0.0855,0.2066,1.0112,-1.0035,-0.1968,-0.0716,0.6392,49.28015752,-122.98105066,0.54000002,
9.8150,0.3230,1.1351,0.0242,0.2066,1.0112,-1.0035,-0.1968,-0.0716,0.6392,49.28015752,-122.98105066,0.54000002,
9.8350,0.3230,1.1351,0.0242,0.2066,1.0112,-1.0035,-0.4778,0.0015,-0.7602,49.28015752,-122.98105066,0.54000002,
9.8540,0.3230,1.1351,0.0242,3.1901,3.0860,-0.2585,-0.4778,0.0015,-0.7602,49.28015752,-122.98105066,0.54000002,
9.8730,0.0180,0.7714,0.1699,3.1901,3.0860,-0.2585,-0.4778,0.0015,-0.7602,49.28015752,-122.98105066,0.54000002,
9.8930,0.0180,0.7714,0.1699,3.1901,3.0860,-0.2585,-0.1244,0.3127,0.0781,49.28015752,-122.98105066,0.54000002,
9.9100,0.0180,0.7714,0.1699,-0.4816,-1.7057,0.1992,-0.1244,0.3127,0.0781,49.28015752,-122.98105066,0.54000002,
9.9480,0.0598,1.0254,0.1096,-0.4816,-1.7057,0.1992,-0.1244,0.3127,0.0781,49.28015752,-122.98105066,0.54000002,
9.9690,0.0598,1.0254,0.1096,-0.4816,-1.7057,0.1992,0.0960,-0.1088,0.0175,49.28015752,-122.98105066,0.54000002,
9.9870,0.0598,1.0254,0.1096,-0.3985,-0.3644,0.4530,0.0960,-0.1088,0.0175,49.28015752,-122.98105066,0.54000002,
10.0060,0.1708,1.0141,0.1265,-0.3985,-0.3644,0.4530,0.0960,-0.1088,0.0175,49.28015752,-122.98105066,0.54000002,
10.0250,0.1708,1.0141,0.1265,-0.3985,-0.3644,0.4530,0.0014,-0.1718,-0.0416,49.28015752,-122.98105066,0.54000002,
10.0440,0.1708,1.0141,0.1265,-0.0309,0.5910,0.0846,0.0014,-0.1718,-0.0416,49.28015752,-122.98105066,0.54000002,
10.0840,0.1551,1.0121,0.1215,-0.0309,0.5910,0.0846,0.0014,-0.1718,-0.0416,49.28015752,-122.98105066,0.54000002,
10.1020,0.1551,1.0121,0.1215,-0.0309,0.5910,0.0846,0.1077,-0.2264,0.0692,49.28015752,-122.98105066,0.54000002,
10.1200,0.1551,1.0121,0.1215,0.8763,0.0780,-0.0570,0.1077,-0.2264,0.0692,49.28015752,-122.98105066,0.54000002,
10.1410,0.1135,0.9964,0.0848,0.8763,0.0780,-0.0570,0.1077,-0.2264,0.0692,49.28015752,-122.98105066,0.54000002,
10.1580,0.1135,0.9964,0.0848,0.8763,0.0780,-0.0570,0.0384,-0.2060,0.0065,49.28015752,-122.98105066,0.54000002,
10.1770,0.1135,0.9964,0.0848,-0.2219,-0.0454,0.4721,0.0384,-0.2060,0.0065,49.28015752,-122.98105066,0.54000002,
10.2160,0.0562,1.0392,0.1457,-0.2219,-0.0454,0.4721,0.0384,-0.2060,0.0065,49.28015752,-122.98105066,0.54000002,
10.2360,0.0562,1.0392,0.1457,-0.2219,-0.0454,0.4721,-0.0982,-0.3062,0.0985,49.28015752,-122.98105066,0.54000002,
10.2530,0.0562,1.0392,0.1457,-0.5288,0.3347,0.0826,-0.0982,-0.3062,0.0985,49.28015752,-122.98105066,0.54000002,
10.2720,0.1161,1.1246,0.0784,-0.5288,0.3347,0.0826,-0.0982,-0.3062,0.0985,49.28015752,-122.98105066,0.54000002,
10.2920,0.1161,1.1246,0.0784,-0.5288,0.3347,0.0826,-0.1258,-0.6985,0.4914,49.28015752,-122.98105066,0.54000002,
10.3100,0.1161,1.1246,0.0784,-0.9122,1.0678,0.3432,-0.1258,-0.6985,0.4914,49.28015752,-122.98105066,0.54000002,
10.3490,0.2595,0.8205,0.0324,-0.9122,1.0678,0.3432,-0.1258,-0.6985,0.4914,49.28015752,-122.98105066,0.54000002,
10.3680,0.2595,0.8205,0.0324,-0.9122,1.0678,0.3432,-0.3096,-0.1897,-0.0633,49.28015752,-122.98105066,0.54000002,
10.3850,0.2595,0.8205,0.0324,0.1861,-0.1451,-0.3735,-0.3096,-0.1897,-0.0633,49.28015752,-122.98105066,0.54000002,
10.4060,0.0875,0.9303,0.1050,0.1861,-0.1451,-0.3735,-0.3096,-0.1897,-0.0633,49.28015752,-122.98105066,0.54000002,
10.4240,0.0875,0.9303,0.1050,0.1861,-0.1451,-0.3735,0.2727,-0.8048,-0.4602,49.28015752,-122.98105066,0.54000002,
10.4440,0.0875,0.9303,0.1050,0.6984,-2.5019,0.4300,0.2727,-0.8048,-0.4602,49.28015752,-122.98105066,0.54000002,
10.4800,0.2578,1.2493,-0.1600,0.6984,-2.5019,0.4300,0.2727,-0.8048,-0.4602,49.28015752,-122.98105066,0.54000002,
10.4910,0.2578,1.2493,-0.1600,0.6984,-2.5019,0.4300,-0.4843,-0.6074,-0.1867,49.28015752,-122.98105066,0.54000002,
10.5110,0.2578,1.2493,-0.1600,0.3429,2.7533,-2.5507,-0.4843,-0.6074,-0.1867,49.28015752,-122.98105066,0.54000002,
10.5490,0.3042,0.9260,0.0001,0.3429,2.7533,-2.5507,-0.4843,-0.6074,-0.1867,49.28015752,-122.98105066,0.54000002,
10.5680,0.3042,0.9260,0.0001,0.3429,2.7533,-2.5507,-0.7492,0.2651,-0.1505,49.28015752,-122.98105066,0.54000002,
10.5870,0.3042,0.9260,0.0001,1.6658,0.3543,-1.9745,-0.7492,0.2651,-0.1505,49.28015752,-122.98105066,0.54000002,
10.6060,0.1187,0.9108,0.0815,1.6658,0.3543,-1.9745,-0.7492,0.2651,-0.1505,49.28015752,-122.98105066,0.54000002,
10.6250,0.1187,0.9108,0.0815,1.6658,0.3543,-1.9745,-0.8436,0.4100,-0.0493,49.28015752,-122.98105066,0.54000002,
10.6440,0.1187,0.9108,0.0815,1.3874,-1.0173,-1.8461,-0.8436,0.4100,-0.0493,49.28015752,-122.98105066,0.54000002,
10.6850,0.0169,0.9989,0.1660,1.3874,-1.0173,-1.8461,-0.8436,0.4100,-0.0493,49.28015752,-122.98105066,0.54000002,
10.7010,0.0169,0.9989,0.1660,1.3874,-1.0173,-1.8461,-0.3895,-0.0231,-0.1460,49.28015752,-122.98105066,0.54000002,
10.7200,0.0169,0.9989,0.1660,-1.0828,0.5712,-0.7678,-0.3895,-0.0231,-0.1460,49.28015752,-122.98105066,0.54000002,
10.7390,0.2178,0.9691,0.3567,-1.0828,0.5712,-0.7678,-0.3895,-0.0231,-0.1460,49.28015752,-122.98105066,0.54000002,
10.7580,0.2178,0.9691,0.3567,-1.0828,0.5712,-0.7678,-0.1312,-0.0779,-0.0961,49.28015752,-122.98105066,0.54000002,
10.7770,0.2178,0.9691,0.3567,0.4436,-0.1467,0.1553,-0.1312,-0.0779,-0.0961,49.28015752,-122.98105066,0.54000002,
10.8150,0.1965,0.9682,0.2596,0.4436,-0.1467,0.1553,-0.1312,-0.0779,-0.0961,49.28015752,-122.98105066,0.54000002,
10.8340,0.1965,0.9682,0.2596,0.4436,-0.1467,0.1553,0.1577,0.3452,0.0025,49.28015752,-122.98105066,0.54000002,
10.8530,0.1965,0.9682,0.2596,1.1612,-0.4439,0.9368,0.1577,0.3452,0.0025,49.28015752,-122.98105066,0.54000002,
10.8730,0.0360,0.9550,0.2857,1.1612,-0.4439,0.9368,0.1577,0.3452,0.0025,49.28015752,-122.98105066,0.54000002,
10.8920,0.0360,0.9550,0.2857,1.1612,-0.4439,0.9368,0.2358,0.2988,-0.0394,49.28015752,-122.98105066,0.54000002,
10.9100,0.0360,0.9550,0.2857,0.1580,-0.1825,0.6009,0.2358,0.2988,-0.0394,49.28015752,-122.98105066,0.54000002,
10.9480,0.0664,0.8321,0.2954,0.1580,-0.1825,0.6009,0.2358,0.2988,-0.0394,49.28015752,-122.98105066,0.54000002,
10.9680,0.0664,0.8321,0.2954,0.1580,-0.1825,0.6009,0.3922,0.1796,0.0999,49.28015752,-122.98105066,0.54000002,
10.9860,0.0664,0.8321,0.2954,-0.4848,-0.8141,0.7494,0.3922,0.1796,0.0999,49.28015752,-122.98105066,0.54000002,
11.0060,0.0404,1.2438,0.2293,-0.4848,-0.8141,0.7494,0.3922,0.1796,0.0999,49.28015752,-122.98105066,0.54000002,
11.0240,0.0404,1.2438,0.2293,-0.4848,-0.8141,0.7494,0.5804,0.2504,-0.2582,49.28015752,-122.98105066,0.54000002,
11.0440,0.0404,1.2438,0.2293,0.2354,0.2927,1.5638,0.5804,0.2504,-0.2582,49.28015752,-122.98105066,0.54000002,
11.0810,0.0546,0.9332,0.1706,0.2354,0.2927,1.5638,0.5804,0.2504,-0.2582,49.28015752,-122.98105066,0.54000002,
11.1000,0.0546,0.9332,0.1706,0.2354,0.2927,1.5638,0.2707,-0.0346,-0.2055,49.28015752,-122.98105066,0.54000002,
11.1190,0.0546,0.9332,0.1706,-0.4362,0.9300,0.0719,0.2707,-0.0346,-0.2055,49.28015752,-122.98105066,0.54000002,
11.1370,0.0772,1.0098,0.0852,-0.4362,0.9300,0.0719,0.2707,-0.0346,-0.2055,49.28015752,-122.98105066,0.54000002,
11.1570,0.0772,1.0098,0.0852,-0.4362,0.9300,0.0719,0.0741,0.0284,-0.0552,49.28015752,-122.98105066,0.54000002,
11.1760,0.0772,1.0098,0.0852,-0.0017,-0.0419,-0.1660,0.0741,0.0284,-0.0552,49.28015752,-122.98105066,0.54000002,
11.2140,0.0645,1.0196,0.1757,-0.0017,-0.0419,-0.1660,0.0741,0.0284,-0.0552,49.28015752,-122.98105066,0.54000002,
11.2330,0.0645,1.0196,0.1757,-0.0017,-0.0419,-0.1660,0.0371,0.2147,0.0383,49.28015752,-122.98105066,0.54000002,
11.2530,0.0645,1.0196,0.1757,0.2970,0.1338,-0.0398,0.0371,0.2147,0.0383,49.28015752,-122.98105066,0.54000002,
11.2710,0.0799,1.0651,0.1114,0.2970,0.1338,-0.0398,0.0371,0.2147,0.0383,49.28015752,-122.98105066,0.54000002,
11.2900,0.0799,1.0651,0.1114,0.2970,0.1338,-0.0398,-0.0537,0.1143,-0.0230,49.28015752,-122.98105066,0.54000002,
11.3100,0.0799,1.0651,0.1114,0.0588,0.6360,-0.0174,-0.0537,0.1143,-0.0230,49.28015752,-122.98105066,0.54000002,
11.3480,0.0468,0.9602,0.1751,0.0588,0.6360,-0.0174,-0.0537,0.1143,-0.0230,49.28015752,-122.98105066,0.54000002,
11.3660,0.0468,0.9602,0.1751,0.0588,0.6360,-0.0174,0.0152,0.0202,-0.1092,49.28014898,-122.98104382,0.30000001,
11.3850,0.0468,0.9602,0.1751,0.3810,-0.2398,0.1202,0.0152,0.0202,-0.1092,49.28014898,-122.98104382,0.30000001,
11.4040,0.0801,0.9904,0.1207,0.3810,-0.2398,0.1202,0.0152,0.0202,-0.1092,49.28014898,-122.98104382,0.30000001,
11.4230,0.0801,0.9904,0.1207,0.3810,-0.2398,0.1202,0.0351,0.0504,-0.0718,49.28014898,-122.98104382,0.30000001,
11.4440,0.0801,0.9904,0.1207,0.0684,0.0145,0.0028,0.0351,0.0504,-0.0718,49.28014898,-122.98104382,0.30000001,
11.4800,0.0449,1.0803,0.1633,0.0684,0.0145,0.0028,0.0351,0.0504,-0.0718,49.28014898,-122.98104382,0.30000001,
11.4930,0.0449,1.0803,0.1633,0.0684,0.0145,0.0028,0.2718,0.0614,0.0329,49.28014898,-122.98104382,0.30000001,
11.5090,0.0449,1.0803,0.1633,-0.0130,0.1396,0.5389,0.2718,0.0614,0.0329,49.28014898,-122.98104382,0.30000001,
11.5480,0.0084,1.0993,0.1093,-0.0130,0.1396,0.5389,0.2718,0.0614,0.0329,49.28014898,-122.98104382,0.30000001,
11.5670,0.0084,1.0993,0.1093,-0.0130,0.1396,0.5389,-0.0345,0.0522,0.2902,49.28014898,-122.98104382,0.30000001,
11.5860,0.0084,1.0993,0.1093,-0.1802,1.2180,-0.3951,-0.0345,0.0522,0.2902,49.28014898,-122.98104382,0.30000001,
11.6040,0.0708,0.6671,0.1339,-0.1802,1.2180,-0.3951,-0.0345,0.0522,0.2902,49.28014898,-122.98104382,0.30000001,
11.6240,0.0708,0.6671,0.1339,-0.1802,1.2180,-0.3951,-0.0364,-0.1236,-0.2497,49.28014898,-122.98104382,0.30000001,
11.6440,0.0708,0.6671,0.1339,0.0874,-1.6470,0.1659,-0.0364,-0.1236,-0.2497,49.28014898,-122.98104382,0.30000001,
11.6810,0.0424,1.2041,0.0971,0.0874,-1.6470,0.1659,-0.0364,-0.1236,-0.2497,49.28014898,-122.98104382,0.30000001,
11.7010,0.0424,1.2041,0.0971,0.0874,-1.6470,0.1659,-0.1122,-0.1676,-0.1563,49.28014898,-122.98104382,0.30000001,
11.7200,0.0424,1.2041,0.0971,-0.0683,-0.6508,-0.2299,-0.1122,-0.1676,-0.1563,49.28014898,-122.98104382,0.30000001,
11.7380,0.0779,1.0033,0.1177,-0.0683,-0.6508,-0.2299,-0.1122,-0.1676,-0.1563,49.28014898,-122.98104382,0.30000001,
11.7570,0.0779,1.0033,0.1177,-0.0683,-0.6508,-0.2299,0.0863,0.0590,0.1395,49.28014898,-122.98104382,0.30000001,
11.7770,0.0779,1.0033,0.1177,0.1797,1.5398,0.3921,0.0863,0.0590,0.1395,49.28014898,-122.98104382,0.30000001,
11.8140,0.1080,0.9969,0.1264,0.1797,1.5398,0.3921,0.0863,0.0590,0.1395,49.28014898,-122.98104382,0.30000001,
11.8330,0.1080,0.9969,0.1264,0.1797,1.5398,0.3921,0.0093,-0.0208,-0.1083,49.28014898,-122.98104382,0.30000001,
11.8530,0.1080,0.9969,0.1264,0.6174,-0.7680,-0.2844,0.0093,-0.0208,-0.1083,49.28014898,-122.98104382,0.30000001,
11.8720,0.0048,1.0163,0.1281,0.6174,-0.7680,-0.2844,0.0093,-0.0208,-0.1083,49.28014898,-122.98104382,0.30000001,
11.8900,0.0048,1.0163,0.1281,0.6174,-0.7680,-0.2844,0.0241,-0.1704,-0.0434,49.28014898,-122.98104382,0.30000001,
11.9090,0.0048,1.0163,0.1281,0.0331,0.5593,-0.4412,0.0241,-0.1704,-0.0434,49.28014898,-122.98104382,0.30000001,
11.9470,0.0086,0.9656,0.1327,0.0331,0.5593,-0.4412,0.0241,-0.1704,-0.0434,49.28014898,-122.98104382,0.30000001,
11.9670,0.0086,0.9656,0.1327,0.0331,0.5593,-0.4412,-0.0183,0.2454,0.0619,49.28014898,-122.98104382,0.30000001,
11.9850,0.0086,0.9656,0.1327,-0.2171,-0.4579,0.0935,-0.0183,0.2454,0.0619,49.28014898,-122.98104382,0.30000001,
12.0040,0.0734,1.1030,0.0705,-0.2171,-0.4579,0.0935,-0.0183,0.2454,0.0619,49.28014898,-122.98104382,0.30000001,
12.0240,0.0734,1.1030,0.0705,-0.2171,-0.4579,0.0935,0.0871,-0.1433,-0.0090,49.28014898,-122.98104382,0.30000001,
12.0430,0.0734,1.1030,0.0705,-0.3785,0.5153,-0.0714,0.0871,-0.1433,-0.0090,49.28014898,-122.98104382,0.30000001,
12.0810,0.1233,1.0079,0.0585,-0.3785,0.5153,-0.0714,0.0871,-0.1433,-0.0090,49.28014898,-122.98104382,0.30000001,
12.1000,0.1233,1.0079,0.0585,-0.3785,0.5153,-0.0714,-0.0602,0.0211,-0.3521,49.28014898,-122.98104382,0.30000001,
12.1190,0.1233,1.0079,0.0585,0.9068,0.4389,-0.2621,-0.0602,0.0211,-0.3521,49.28014898,-122.98104382,0.30000001,
12.1380,-0.0368,0.8374,0.1128,0.9068,0.4389,-0.2621,-0.0602,0.0211,-0.3521,49.28014898,-122.98104382,0.30000001,
12.1560,-0.0368,0.8374,0.1128,0.9068,0.4389,-0.2621,-0.2448,-0.0487,0.0849,49.28014898,-122.98104382,0.30000001,
12.1760,-0.0368,0.8374,0.1128,0.2417,-0.2998,-0.5880,-0.2448,-0.0487,0.0849,49.28014898,-122.98104382,0.30000001,
12.2140,0.1361,1.1284,0.2323,0.2417,-0.2998,-0.5880,-0.2448,-0.0487,0.0849,49.28014898,-122.98104382,0.30000001,
12.2340,0.1361,1.1284,0.2323,0.2417,-0.2998,-0.5880,0.2550,0.2026,0.1353,49.28014898,-122.98104382,0.30000001,
12.2530,0.1361,1.1284,0.2323,-0.1789,-0.7633,1.7877,0.2550,0.2026,0.1353,49.28014898,-122.98104382,0.30000001,
12.2710,-0.0215,1.0017,0.0391,-0.1789,-0.7633,1.7877,0.2550,0.2026,0.1353,49.28014898,-122.98104382,0.30000001,
12.2900,-0.0215,1.0017,0.0391,-0.1789,-0.7633,1.7877,-0.1731,0.1174,-0.1352,49.28014898,-122.98104382,0.30000001,
12.3090,-0.0215,1.0017,0.0391,1.1473,2.0752,-1.9217,-0.1731,0.1174,-0.1352,49.28014898,-122.98104382,0.30000001,
12.3460,-0.0959,1.0058,0.1356,1.1473,2.0752,-1.9217,-0.1731,0.1174,-0.1352,49.28014898,-122.98104382,0.30000001,
12.3650,-0.0959,1.0058,0.1356,1.1473,2.0752,-1.9217,0.0395,0.0872,0.3336,49.28014898,-122.98104382,0.30000001,
12.3840,-0.0959,1.0058,0.1356,-1.3362,-0.7796,0.3424,0.0395,0.0872,0.3336,49.28014898,-122.98104382,0.30000001,
12.4030,0.1894,1.0368,0.1546,-1.3362,-0.7796,0.3424,0.0395,0.0872,0.3336,49.28014898,-122.98104382,0.30000001,
12.4220,0.1894,1.0368,0.1546,-1.3362,-0.7796,0.3424,-0.2394,-0.4866,0.4052,49.28014898,-122.98104382,0.30000001,
12.4420,0.1894,1.0368,0.1546,-0.6475,-0.2615,-0.7871,-0.2394,-0.4866,0.4052,49.28014898,-122.98104382,0.30000001,
12.4800,0.1082,1.0019,0.2184,-0.6475,-0.2615,-0.7871,-0.2394,-0.4866,0.4052,49.28014898,-122.98104382,0.30000001,
12.5000,0.1082,1.0019,0.2184,-0.6475,-0.2615,-0.7871,0.1351,-0.2650,-0.0371,49.28014898,-122.98104382,0.30000001,
12.5180,0.1082,1.0019,0.2184,1.1767,0.2440,0.9115,0.1351,-0.2650,-0.0371,49.28014898,-122.98104382,0.30000001,
12.5360,0.1342,0.8952,0.0903,1.1767,0.2440,0.9115,0.1351,-0.2650,-0.0371,49.28014898,-122.98104382,0.30000001,
12.5560,0.1342,0.8952,0.0903,1.1767,0.2440,0.9115,-0.1871,-0.3212,0.1263,49.28014898,-122.98104382,0.30000001,
12.5770,0.1342,0.8952,0.0903,0.1344,0.1966,-0.3748,-0.1871,-0.3212,0.1263,49.28014898,-122.98104382,0.30000001,
12.6130,0.1413,1.1487,0.0927,0.1344,0.1966,-0.3748,-0.1871,-0.3212,0.1263,49.28014898,-122.98104382,0.30000001,
12.6340,0.1413,1.1487,0.0927,0.1344,0.1966,-0.3748,-0.5031,0.0344,-0.1776,49.28014898,-122.98104382,0.30000001,
12.6530,0.1413,1.1487,0.0927,0.4055,0.1940,-0.0984,-0.5031,0.0344,-0.1776,49.28014898,-122.98104382,0.30000001,
12.6700,0.0476,0.8563,0.3086,0.4055,0.1940,-0.0984,-0.5031,0.0344,-0.1776,49.28014898,-122.98104382,0.30000001,
12.6900,0.0476,0.8563,0.3086,0.4055,0.1940,-0.0984,-0.4139,-0.0566,-0.1373,49.28014898,-122.98104382,0.30000001,
12.7080,0.0476,0.8563,0.3086,0.3628,-0.7885,-1.0372,-0.4139,-0.0566,-0.1373,49.28014898,-122.98104382,0.30000001,
12.7470,0.0635,1.0140,0.1496,0.3628,-0.7885,-1.0372,-0.4139,-0.0566,-0.1373,49.28014898,-122.98104382,0.30000001,
12.7670,0.0635,1.0140,0.1496,0.3628,-0.7885,-1.0372,-0.3412,0.2913,0.0242,49.28014898,-122.98104382,0.30000001,
12.7850,0.0635,1.0140,0.1496,-0.1842,0.0064,-0.0111,-0.3412,0.2913,0.0242,49.28014898,-122.98104382,0.30000001,
12.8040,0.0079,1.0379,0.2580,-0.1842,0.0064,-0.0111,-0.3412,0.2913,0.0242,49.28014898,-122.98104382,0.30000001,
12.8260,0.0079,1.0379,0.2580,-0.1842,0.0064,-0.0111,-0.0605,-0.0463,-0.3528,49.28014898,-122.98104382,0.30000001,
12.8420,0.0079,1.0379,0.2580,0.1089,0.6907,0.1322,-0.0605,-0.0463,-0.3528,49.28014898,-122.98104382,0.30000001,
12.8800,0.0440,0.8417,0.2322,0.1089,0.6907,0.1322,-0.0605,-0.0463,-0.3528,49.28014898,-122.98104382,0.30000001,
12.9000,0.0440,0.8417,0.2322,0.1089,0.6907,0.1322,0.0056,0.9706,-0.4453,49.28014898,-122.98104382,0.30000001,
12.9180,0.0440,0.8417,0.2322,0.5837,-0.8833,0.1241,0.0056,0.9706,-0.4453,49.28014898,-122.98104382,0.30000001,
12.9370,0.1032,1.1493,0.1976,0.5837,-0.8833,0.1241,0.0056,0.9706,-0.4453,49.28014898,-122.98104382,0.30000001,
12.9560,0.1032,1.1493,0.1976,0.5837,-0.8833,0.1241,-0.0130,0.1094,-0.0994,49.28014898,-122.98104382,0.30000001,
12.9760,0.1032,1.1493,0.1976,0.3032,0.7659,-0.2840,-0.0130,0.1094,-0.0994,49.28014898,-122.98104382,0.30000001,
13.0140,0.0298,0.8432,0.2212,0.3032,0.7659,-0.2840,-0.0130,0.1094,-0.0994,49.28014898,-122.98104382,0.30000001,
13.0320,0.0298,0.8432,0.2212,0.3032,0.7659,-0.2840,-0.1237,0.0940,0.4598,49.28014898,-122.98104382,0.30000001,
13.0520,0.0298,0.8432,0.2212,0.3198,-0.1628,-0.4874,-0.1237,0.0940,0.4598,49.28014898,-122.98104382,0.30000001,
13.0700,0.0154,1.1194,0.2558,0.3198,-0.1628,-0.4874,-0.1237,0.0940,0.4598,49.28014898,-122.98104382,0.30000001,
13.0890,0.0154,1.1194,0.2558,0.3198,-0.1628,-0.4874,0.2486,0.5911,0.1799,49.28014898,-122.98104382,0.30000001,
13.1080,0.0154,1.1194,0.2558,0.4596,-1.3882,0.9529,0.2486,0.5911,0.1799,49.28014898,-122.98104382,0.30000001,
13.1460,-0.0510,1.0135,0.2095,0.4596,-1.3882,0.9529,0.2486,0.5911,0.1799,49.28014898,-122.98104382,0.30000001,
13.1660,-0.0510,1.0135,0.2095,0.4596,-1.3882,0.9529,-0.0193,0.0181,-0.2265,49.28014898,-122.98104382,0.30000001,
13.1840,-0.0510,1.0135,0.2095,-0.6413,2.6673,-1.0268,-0.0193,0.0181,-0.2265,49.28014898,-122.98104382,0.30000001,
13.2030,0.0338,0.9062,0.2335,-0.6413,2.6673,-1.0268,-0.0193,0.0181,-0.2265,49.28014898,-122.98104382,0.30000001,
13.2230,0.0338,0.9062,0.2335,-0.6413,2.6673,-1.0268,0.0086,0.1129,0.1118,49.28014898,-122.98104382,0.30000001,
13.2430,0.0338,0.9062,0.2335,-0.0905,-1.2393,0.4871,0.0086,0.1129,0.1118,49.28014898,-122.98104382,0.30000001,
13.2830,-0.0143,1.0457,0.2057,-0.0905,-1.2393,0.4871,0.0086,0.1129,0.1118,49.28014898,-122.98104382,0.30000001,
13.2990,-0.0143,1.0457,0.2057,-0.0905,-1.2393,0.4871,-0.0694,-0.1868,0.0332,49.28014898,-122.98104382,0.30000001,
13.3180,-0.0143,1.0457,0.2057,-0.2586,0.5479,-0.3277,-0.0694,-0.1868,0.0332,49.28014898,-122.98104382,0.30000001,
13.3370,0.0357,0.9751,0.2746,-0.2586,0.5479,-0.3277,-0.0694,-0.1868,0.0332,49.28014898,-122.98104382,0.30000001,
13.3640,0.0357,0.9751,0.2746,-0.2586,0.5479,-0.3277,0.0004,-0.2116,-0.1271,49.28014898,-122.98104382,0.30000001,
13.3800,0.0357,0.9751,0.2746,0.1096,-0.0213,0.2175,0.0004,-0.2116,-0.1271,49.28014898,-122.98104382,0.30000001,
13.4130,0.0366,1.0138,0.2237,0.1096,-0.0213,0.2175,0.0004,-0.2116,-0.1271,49.28017778,-122.98110469,0.22000000,
13.4320,0.0366,1.0138,0.2237,0.1096,-0.0213,0.2175,-0.0329,-0.1901,-0.0610,49.28017778,-122.98110469,0.22000000,
13.4510,0.0366,1.0138,0.2237,0.2273,0.0738,0.1539,-0.0329,-0.1901,-0.0610,49.28017778,-122.98110469,0.22000000,
13.4700,0.0290,0.8632,0.2695,0.2273,0.0738,0.1539,-0.0329,-0.1901,-0.0610,49.28017778,-122.98110469,0.22000000,
13.4990,0.0290,0.8632,0.2695,0.2273,0.0738,0.1539,-0.1059,0.1263,0.3774,49.28017778,-122.98110469,0.22000000,
13.5170,0.0290,0.8632,0.2695,-0.2461,-0.9641,-0.2232,-0.1059,0.1263,0.3774,49.28017778,-122.98110469,0.22000000,
13.5360,0.0263,1.0822,0.2669,-0.2461,-0.9641,-0.2232,-0.1059,0.1263,0.3774,49.28017778,-122.98110469,0.22000000,
13.5550,0.0263,1.0822,0.2669,-0.2461,-0.9641,-0.2232,-0.0832,-0.1191,0.0549,49.28017778,-122.98110469,0.22000000,
13.5750,0.0263,1.0822,0.2669,-0.1743,1.1111,0.4534,-0.0832,-0.1191,0.0549,49.28017778,-122.98110469,0.22000000,
13.6130,0.0381,0.9911,0.3387,-0.1743,1.1111,0.4534,-0.0832,-0.1191,0.0549,49.28017778,-122.98110469,0.22000000,
13.6320,0.0381,0.9911,0.3387,-0.1743,1.1111,0.4534,-0.1043,-0.2027,0.1202,49.28017778,-122.98110469,0.22000000,
13.6510,0.0381,0.9911,0.3387,0.0133,-0.4897,0.5390,-0.1043,-0.2027,0.1202,49.28017778,-122.98110469,0.22000000,
13.6700,0.0556,0.9138,0.3187,0.0133,-0.4897,0.5390,-0.1043,-0.2027,0.1202,49.28017778,-122.98110469,0.22000000,
13.6880,0.0556,0.9138,0.3187,0.0133,-0.4897,0.5390,-0.0408,-0.2733,0.1285,49.28017778,-122.98110469,0.22000000,
13.7080,0.0556,0.9138,0.3187,-0.4932,0.0243,0.7025,-0.0408,-0.2733,0.1285,49.28017778,-122.98110469,0.22000000,
13.7470,0.0852,0.9883,0.4543,-0.4932,0.0243,0.7025,-0.0408,-0.2733,0.1285,49.28017778,-122.98110469,0.22000000,
13.7650,0.0852,0.9883,0.4543,-0.4932,0.0243,0.7025,0.2156,-0.2009,-0.0095,49.28017778,-122.98110469,0.22000000,
13.7840,0.0852,0.9883,0.4543,0.2263,0.2225,1.7318,0.2156,-0.2009,-0.0095,49.28017778,-122.98110469,0.22000000,
13.8040,0.0713,0.9358,0.4211,0.2263,0.2225,1.7318,0.2156,-0.2009,-0.0095,49.28017778,-122.98110469,0.22000000,
13.8220,0.0713,0.9358,0.4211,0.2263,0.2225,1.7318,0.3020,0.0853,-0.0847,49.28017778,-122.98110469,0.22000000,
13.8410,0.0713,0.9358,0.4211,0.5339,-0.6824,2.1017,0.3020,0.0853,-0.0847,49.28017778,-122.98110469,0.22000000,
13.8780,-0.0404,0.8885,0.2886,0.5339,-0.6824,2.1017,0.3020,0.0853,-0.0847,49.28017778,-122.98110469,0.22000000,
13.8990,-0.0404,0.8885,0.2886,0.5339,-0.6824,2.1017,0.2933,-0.0852,-0.0420,49.28017778,-122.98110469,0.22000000,
13.9180,-0.0404,0.8885,0.2886,-0.8804,-0.6394,1.2399,0.2933,-0.0852,-0.0420,49.28017778,-122.98110469,0.22000000,
13.9360,-0.0848,0.9920,0.1868,-0.8804,-0.6394,1.2399,0.2933,-0.0852,-0.0420,49.28017778,-122.98110469,0.22000000,
13.9540,-0.0848,0.9920,0.1868,-0.8804,-0.6394,1.2399,0.3990,-0.2299,0.0285,49.28017778,-122.98110469,0.22000000,
13.9740,-0.0848,0.9920,0.1868,-1.0867,-0.5911,0.7258,0.3990,-0.2299,0.0285,49.28017778,-122.98110469,0.22000000,
14.0130,-0.0455,0.9913,0.1336,-1.0867,-0.5911,0.7258,0.3990,-0.2299,0.0285,49.28017778,-122.98110469,0.22000000,
14.0330,-0.0455,0.9913,0.1336,-1.0867,-0.5911,0.7258,0.5484,-0.4426,0.0736,49.28017778,-122.98110469,0.22000000,
14.0530,-0.0455,0.9913,0.1336,-1.5301,0.0107,0.0698,0.5484,-0.4426,0.0736,49.28017778,-122.98110469,0.22000000,
14.0690,-0.0639,0.9865,0.1047,-1.5301,0.0107,0.0698,0.5484,-0.4426,0.0736,49.28017778,-122.98110469,0.22000000,
14.0880,-0.0639,0.9865,0.1047,-1.5301,0.0107,0.0698,0.6772,-0.6268,0.0870,49.28017778,-122.98110469,0.22000000,
14.1070,-0.0639,0.9865,0.1047,-1.2377,-0.0506,0.3074,0.6772,-0.6268,0.0870,49.28017778,-122.98110469,0.22000000,
14.1460,-0.0055,0.9296,0.1388,-1.2377,-0.0506,0.3074,0.6772,-0.6268,0.0870,49.28017778,-122.98110469,0.22000000,
14.1650,-0.0055,0.9296,0.1388,-1.2377,-0.0506,0.3074,0.6833,-0.5542,0.2095,49.28017778,-122.98110469,0.22000000,
14.1840,-0.0055,0.9296,0.1388,-1.3315,-0.5623,0.8662,0.6833,-0.5542,0.2095,49.28017778,-122.98110469,0.22000000,
14.2040,0.0509,0.9359,0.1586,-1.3315,-0.5623,0.8662,0.6833,-0.5542,0.2095,49.28017778,-122.98110469,0.22000000,
14.2230,0.0509,0.9359,0.1586,-1.3315,-0.5623,0.8662,0.6242,-0.4559,0.2186,49.28017778,-122.98110469,0.22000000,
14.2410,0.0509,0.9359,0.1586,-0.8724,-0.7982,1.2753,0.6242,-0.4559,0.2186,49.28017778,-122.98110469,0.22000000,
14.2790,0.0213,0.9491,0.1660,-0.8724,-0.7982,1.2753,0.6242,-0.4559,0.2186,49.28017778,-122.98110469,0.22000000,
14.2980,0.0213,0.9491,0.1660,-0.8724,-0.7982,1.2753,0.4606,-0.1805,0.2106,49.28017778,-122.98110469,0.22000000,
14.3170,0.0213,0.9491,0.1660,-0.6198,-0.1958,2.1740,0.4606,-0.1805,0.2106,49.28017778,-122.98110469,0.22000000,
14.3370,-0.1171,0.9927,0.0928,-0.6198,-0.1958,2.1740,0.4606,-0.1805,0.2106,49.28017778,-122.98110469,0.22000000,
14.3550,-0.1171,0.9927,0.0928,-0.6198,-0.1958,2.1740,-0.3954,-0.1178,0.3771,49.28017778,-122.98110469,0.22000000,
14.3740,-0.1171,0.9927,0.0928,-1.9289,-1.0756,0.9842,-0.3954,-0.1178,0.3771,49.28017778,-122.98110469,0.22000000,
14.4130,-0.0130,1.4066,-0.0274,-1.9289,-1.0756,0.9842,-0.3954,-0.1178,0.3771,49.28017778,-122.98110469,0.22000000,
14.4310,-0.0130,1.4066,-0.0274,-1.9289,-1.0756,0.9842,-1.9652,-1.3488,-0.5010,49.28017778,-122.98110469,0.22000000,
14.4510,-0.0130,1.4066,-0.0274,-2.0598,2.7588,-1.7959,-1.9652,-1.3488,-0.5010,49.28017778,-122.98110469,0.22000000,
14.4690,0.2227,1.3452,0.2638,-2.0598,2.7588,-1.7959,-1.9652,-1.3488,-0.5010,49.28017778,-122.98110469,0.22000000,
14.4970,0.2227,1.3452,0.2638,-2.0598,2.7588,-1.7959,-1.7500,-0.2610,-0.5755,49.28017778,-122.98110469,0.22000000,
14.5170,0.2227,1.3452,0.2638,1.2175,3.8961,-1.0007,-1.7500,-0.2610,-0.5755,49.28017778,-122.98110469,0.22000000,
14.5370,-0.0613,1.0882,0.0388,1.2175,3.8961,-1.0007,-1.7500,-0.2610,-0.5755,49.28017778,-122.98110469,0.22000000,
14.5550,-0.0613,1.0882,0.0388,1.2175,3.8961,-1.0007,-0.9011,-1.2617,-1.0441,49.28017778,-122.98110469,0.22000000,
14.5730,-0.0613,1.0882,0.0388,0.2954,2.5978,-1.1024,-0.9011,-1.2617,-1.0441,49.28017778,-122.98110469,0.22000000,
14.6120,0.0283,0.8913,0.0320,0.2954,2.5978,-1.1024,-0.9011,-1.2617,-1.0441,49.28017778,-122.98110469,0.22000000,
14.6300,0.0283,0.8913,0.0320,0.2954,2.5978,-1.1024,-0.7126,-2.8257,-0.7993,49.28017778,-122.98110469,0.22000000,
14.6500,0.0283,0.8913,0.0320,-1.4100,0.3420,-3.7177,-0.7126,-2.8257,-0.7993,49.28017778,-122.98110469,0.22000000,
14.6690,0.4282,0.6190,0.1388,-1.4100,0.3420,-3.7177,-0.7126,-2.8257,-0.7993,49.28017778,-122.98110469,0.22000000,
14.6870,0.4282,0.6190,0.1388,-1.4100,0.3420,-3.7177,-0.1949,-1.4939,-0.3553,49.28017778,-122.98110469,0.22000000,
14.7070,0.4282,0.6190,0.1388,2.5297,-2.6658,-1.7706,-0.1949,-1.4939,-0.3553,49.28017778,-122.98110469,0.22000000,
14.7470,0.3141,0.5579,0.1747,2.5297,-2.6658,-1.7706,-0.1949,-1.4939,-0.3553,49.28017778,-122.98110469,0.22000000,
14.7640,0.3141,0.5579,0.1747,2.5297,-2.6658,-1.7706,0.5837,0.5920,-0.4033,49.28017778,-122.98110469,0.22000000,
14.7860,0.3141,0.5579,0.1747,4.0091,-3.6880,-1.3205,0.5837,0.5920,-0.4033,49.28017778,-122.98110469,0.22000000,
14.8030,-0.1527,0.9041,0.5619,4.0091,-3.6880,-1.3205,0.5837,0.5920,-0.4033,49.28017778,-122.98110469,0.22000000,
14.8220,-0.1527,0.9041,0.5619,4.0091,-3.6880,-1.3205,0.6687,0.1043,-0.2696,49.28017778,-122.98110469,0.22000000,
14.8400,-0.1527,0.9041,0.5619,0.8737,-3.0991,1.0481,0.6687,0.1043,-0.2696,49.28017778,-122.98110469,0.22000000,
14.8780,0.0961,1.1455,0.5218,0.8737,-3.0991,1.0481,0.6687,0.1043,-0.2696,49.28017778,-122.98110469,0.22000000,
14.8980,0.0961,1.1455,0.5218,0.8737,-3.0991,1.0481,-0.6672,-0.5100,-0.1504,49.28017778,-122.98110469,0.22000000,
14.9170,0.0961,1.1455,0.5218,-2.3703,2.4067,2.5613,-0.6672,-0.5100,-0.1504,49.28017778,-122.98110469,0.22000000,
14.9350,0.1909,0.9350,0.3015,-2.3703,2.4067,2.5613,-0.6672,-0.5100,-0.1504,49.28017778,-122.98110469,0.22000000,
14.9530,0.1909,0.9350,0.3015,-2.3703,2.4067,2.5613,-0.2199,0.0967,-0.0263,49.28017778,-122.98110469,0.22000000,
14.9730,0.1909,0.9350,0.3015,3.8823,-1.1401,2.1502,-0.2199,0.0967,-0.0263,49.28017778,-122.98110469,0.22000000,
15.0120,0.1353,1.3146,-0.0449,3.8823,-1.1401,2.1502,-0.2199,0.0967,-0.0263,49.28017778,-122.98110469,0.22000000,
15.0300,0.1353,1.3146,-0.0449,3.8823,-1.1401,2.1502,0.0377,0.0993,0.0404,49.28017778,-122.98110469,0.22000000,
15.0510,0.1353,1.3146,-0.0449,-0.5248,7.1595,-2.6014,0.0377,0.0993,0.0404,49.28017778,-122.98110469,0.22000000,
15.0690,-0.1131,1.3036,0.0053,-0.5248,7.1595,-2.6014,0.0377,0.0993,0.0404,49.28017778,-122.98110469,0.22000000,
15.0870,-0.1131,1.3036,0.0053,-0.5248,7.1595,-2.6014,1.1469,0.8009,-0.0722,49.28017778,-122.98110469,0.22000000,
15.1070,-0.1131,1.3036,0.0053,2.0471,-3.3459,-1.8008,1.1469,0.8009,-0.0722,49.28017778,-122.98110469,0.22000000,
15.1450,-0.1107,0.8548,0.0735,2.0471,-3.3459,-1.8008,1.1469,0.8009,-0.0722,49.28017778,-122.98110469,0.22000000,
15.1630,-0.1107,0.8548,0.0735,2.0471,-3.3459,-1.8008,1.6127,-0.1664,-0.1973,49.28017778,-122.98110469,0.22000000,
15.1830,-0.1107,0.8548,0.0735,-1.2584,2.5418,-0.8568,1.6127,-0.1664,-0.1973,49.28017778,-122.98110469,0.22000000,
15.2030,-0.0510,0.8735,0.1519,-1.2584,2.5418,-0.8568,1.6127,-0.1664,-0.1973,49.28017778,-122.98110469,0.22000000,
15.2210,-0.0510,0.8735,0.1519,-1.2584,2.5418,-0.8568,1.5113,-0.0313,-0.0296,49.28017778,-122.98110469,0.22000000,
15.2400,-0.0510,0.8735,0.1519,-0.8052,-1.4365,0.9497,1.5113,-0.0313,-0.0296,49.28017778,-122.98110469,0.22000000,
15.2780,-0.0166,0.8757,0.1680,-0.8052,-1.4365,0.9497,1.5113,-0.0313,-0.0296,49.28017778,-122.98110469,0.22000000,
15.2970,-0.0166,0.8757,0.1680,-0.8052,-1.4365,0.9497,0.9746,0.7028,0.1992,49.28017778,-122.98110469,0.22000000,
15.3150,-0.0166,0.8757,0.1680,0.0035,-1.3466,2.2317,0.9746,0.7028,0.1992,49.28017778,-122.98110469,0.22000000,
15.3440,-0.0432,0.8711,0.1680,0.0035,-1.3466,2.2317,0.9746,0.7028,0.1992,49.28017778,-122.98110469,0.22000000,
15.3570,-0.0432,0.8711,0.1680,0.0035,-1.3466,2.2317,0.2591,0.9175,0.2968,49.28017778,-122.98110469,0.22000000,
15.3730,-0.0432,0.8711,0.1680,-0.1602,-1.1337,2.2434,0.2591,0.9175,0.2968,49.28016199,-122.98111419,0.00000000,
15.4120,-0.1733,0.7884,0.1093,-0.1602,-1.1337,2.2434,0.2591,0.9175,0.2968,49.28016199,-122.98111419,0.00000000,
15.4310,-0.1733,0.7884,0.1093,-0.1602,-1.1337,2.2434,0.0219,0.2537,0.3303,49.28016199,-122.98111419,0.00000000,
15.4500,-0.1733,0.7884,0.1093,-2.0469,-1.9004,1.3931,0.0219,0.2537,0.3303,49.28016199,-122.98111419,0.00000000,
15.4680,-0.2362,1.1978,0.1284,-2.0469,-1.9004,1.3931,0.0219,0.2537,0.3303,49.28016199,-122.98111419,0.00000000,
15.4970,-0.2362,1.1978,0.1284,-2.0469,-1.9004,1.3931,-0.6370,0.3052,0.2022,49.28016199,-122.98111419,0.00000000,
15.5160,-0.2362,1.1978,0.1284,-2.0755,-0.6371,1.9643,-0.6370,0.3052,0.2022,49.28016199,-122.98111419,0.00000000,
15.5350,-0.1037,1.5617,-0.0308,-2.0755,-0.6371,1.9643,-0.6370,0.3052,0.2022,49.28016199,-122.98111419,0.00000000,
15.5540,-0.1037,1.5617,-0.0308,-2.0755,-0.6371,1.9643,-1.9600,-1.1884,-0.4581,49.28016199,-122.98111419,0.00000000,
15.5730,-0.1037,1.5617,-0.0308,-2.1899,5.4913,-1.1698,-1.9600,-1.1884,-0.4581,49.28016199,-122.98111419,0.00000000,
15.6120,0.0403,1.6366,0.0264,-2.1899,5.4913,-1.1698,-1.9600,-1.1884,-0.4581,49.28016199,-122.98111419,0.00000000,
15.6300,0.0403,1.6366,0.0264,-2.1899,5.4913,-1.1698,-1.7758,-0.7549,-0.3043,49.28016199,-122.98111419,0.00000000,
15.6490,0.0403,1.6366,0.0264,0.9572,5.6373,-3.1378,-1.7758,-0.7549,-0.3043,49.28016199,-122.98111419,0.00000000,
15.6670,-0.0092,1.0542,0.0032,0.9572,5.6373,-3.1378,-1.7758,-0.7549,-0.3043,49.28016199,-122.98111419,0.00000000,
15.6870,-0.0092,1.0542,0.0032,0.9572,5.6373,-3.1378,-1.2431,-2.1742,-0.3980,49.28016199,-122.98111419,0.00000000,
15.7070,-0.0092,1.0542,0.0032,-1.2769,3.2911,-2.7198,-1.2431,-2.1742,-0.3980,49.28016199,-122.98111419,0.00000000,
15.7450,0.4009,0.7536,0.1349,-1.2769,3.2911,-2.7198,-1.2431,-2.1742,-0.3980,49.28016199,-122.98111419,0.00000000,
15.7640,0.4009,0.7536,0.1349,-1.2769,3.2911,-2.7198,-0.6815,-1.1087,-0.2848,49.28016199,-122.98111419,0.00000000,
15.7840,0.4009,0.7536,0.1349,2.8331,-0.1858,-2.7744,-0.6815,-1.1087,-0.2848,49.28016199,-122.98111419,0.00000000,
15.8020,0.2126,0.3095,0.1818,2.8331,-0.1858,-2.7744,-0.6815,-1.1087,-0.2848,49.28016199,-122.98111419,0.00000000,
15.8210,0.2126,0.3095,0.1818,2.8331,-0.1858,-2.7744,0.4010,0.5796,-0.1174,49.28016199,-122.98111419,0.00000000,
15.8390,0.2126,0.3095,0.1818,3.0309,-5.2663,-1.2303,0.4010,0.5796,-0.1174,49.28016199,-122.98111419,0.00000000,
15.8780,-0.0323,0.6262,0.2966,3.0309,-5.2663,-1.2303,0.4010,0.5796,-0.1174,49.28016199,-122.98111419,0.00000000,
15.8970,-0.0323,0.6262,0.2966,3.0309,-5.2663,-1.2303,0.9755,0.1468,-0.0118,49.28016199,-122.98111419,0.00000000,
15.9150,-0.0323,0.6262,0.2966,1.2260,-5.9156,-0.9512,0.9755,0.1468,-0.0118,49.28016199,-122.98111419,0.00000000,
15.9350,0.0332,1.1689,0.7282,1.2260,-5.9156,-0.9512,0.9755,0.1468,-0.0118,49.28016199,-122.98111419,0.00000000,
15.9530,0.0332,1.1689,0.7282,1.2260,-5.9156,-0.9512,-0.5319,-0.0082,-0.0284,49.28016199,-122.98111419,0.00000000,
15.9760,0.0332,1.1689,0.7282,-2.2170,2.0723,3.1463,-0.5319,-0.0082,-0.0284,49.28016199,-122.98111419,0.00000000,
16.0100,0.0901,1.4397,0.3470,-2.2170,2.0723,3.1463,-0.5319,-0.0082,-0.0284,49.28016199,-122.98111419,0.00000000,
16.0300,0.0901,1.4397,0.3470,-2.2170,2.0723,3.1463,-0.6492,0.0057,-0.0990,49.28016199,-122.98111419,0.00000000,
16.0500,0.0901,1.4397,0.3470,4.4183,-2.5228,1.8459,-0.6492,0.0057,-0.0990,49.28016199,-122.98111419,0.00000000,
16.0680,0.4027,0.5374,-0.2841,4.4183,-2.5228,1.8459,-0.6492,0.0057,-0.0990,49.28016199,-122.98111419,0.00000000,
16.0860,0.4027,0.5374,-0.2841,4.4183,-2.5228,1.8459,0.2446,1.2168,0.1781,49.28016199,-122.98111419,0.00000000,
16.1060,0.4027,0.5374,-0.2841,-0.2834,7.5952,-5.7176,0.2446,1.2168,0.1781,49.28016199,-122.98111419,0.00000000,
16.1440,-0.3469,1.7204,-0.0636,-0.2834,7.5952,-5.7176,0.2446,1.2168,0.1781,49.28016199,-122.98111419,0.00000000,
16.1630,-0.3469,1.7204,-0.0636,-0.2834,7.5952,-5.7176,1.1844,0.7318,-0.0720,49.28016199,-122.98111419,0.00000000,
16.1840,-0.3469,1.7204,-0.0636,0.3646,1.9807,-1.2293,1.1844,0.7318,-0.0720,49.28016199,-122.98111419,0.00000000,
16.2010,-0.1011,0.8916,0.1342,0.3646,1.9807,-1.2293,1.1844,0.7318,-0.0720,49.28016199,-122.98111419,0.00000000,
16.2200,-0.1011,0.8916,0.1342,0.3646,1.9807,-1.2293,1.7609,0.3967,-0.0741,49.28016199,-122.98111419,0.00000000,
16.2400,-0.1011,0.8916,0.1342,-0.2274,-0.9378,0.6056,1.7609,0.3967,-0.0741,49.28016199,-122.98111419,0.00000000,
16.2770,-0.1167,0.8396,0.0940,-0.2274,-0.9378,0.6056,1.7609,0.3967,-0.0741,49.28016199,-122.98111419,0.00000000,
16.2960,-0.1167,0.8396,0.0940,-0.2274,-0.9378,0.6056,1.3661,0.1562,0.1427,49.28016199,-122.98111419,0.00000000,
16.3150,-0.1167,0.8396,0.0940,-1.4388,-1.1015,0.7884,1.3661,0.1562,0.1427,49.28016199,-122.98111419,0.00000000,
16.3340,-0.0576,0.8620,0.2143,-1.4388,-1.1015,0.7884,1.3661,0.1562,0.1427,49.28016199,-122.98111419,0.00000000,
16.3550,-0.0576,0.8620,0.2143,-1.4388,-1.1015,0.7884,0.9533,0.5700,0.2190,49.28016199,-122.98111419,0.00000000,
16.3720,-0.0576,0.8620,0.2143,-0.2746,-1.8532,2.0537,0.9533,0.5700,0.2190,49.28016199,-122.98111419,0.00000000,
16.4100,-0.0125,0.8173,0.1706,-0.2746,-1.8532,2.0537,0.9533,0.5700,0.2190,49.28014806,-122.98109244,0.00000000,
16.4290,-0.0125,0.8173,0.1706,-0.2746,-1.8532,2.0537,0.4830,0.9688,0.4006,49.28014806,-122.98109244,0.00000000,
16.4490,-0.0125,0.8173,0.1706,-0.1517,-1.2383,2.8231,0.4830,0.9688,0.4006,49.28014806,-122.98109244,0.00000000,
16.4670,-0.2774,0.8645,0.1685,-0.1517,-1.2383,2.8231,0.4830,0.9688,0.4006,49.28014806,-122.98109244,0.00000000,
16.4960,-0.2774,0.8645,0.1685,-0.1517,-1.2383,2.8231,0.1065,0.3052,0.4673,49.28014806,-122.98109244,0.00000000,
16.5150,-0.2774,0.8645,0.1685,-2.3697,-1.9048,1.9927,0.1065,0.3052,0.4673,49.28014806,-122.98109244,0.00000000,
16.5340,-0.2509,1.2517,0.0753,-2.3697,-1.9048,1.9927,0.1065,0.3052,0.4673,49.28014806,-122.98109244,0.00000000,
16.5540,-0.2509,1.2517,0.0753,-2.3697,-1.9048,1.9927,-0.8665,0.2016,0.3048,49.28014806,-122.98109244,0.00000000,
16.5730,-0.2509,1.2517,0.0753,-3.4903,0.2610,1.4035,-0.8665,0.2016,0.3048,49.28014806,-122.98109244,0.00000000,
16.6110,0.0279,1.6029,-0.1193,-3.4903,0.2610,1.4035,-0.8665,0.2016,0.3048,49.28014806,-122.98109244,0.00000000,
16.6300,0.0279,1.6029,-0.1193,-3.4903,0.2610,1.4035,-2.2860,-1.1619,-0.4122,49.28014806,-122.98109244,0.00000000,
16.6480,0.0279,1.6029,-0.1193,-1.0461,6.2098,-2.2985,-2.2860,-1.1619,-0.4122,49.28014806,-122.98109244,0.00000000,
16.6670,-0.0492,1.5983,0.1438,-1.0461,6.2098,-2.2985,-2.2860,-1.1619,-0.4122,49.28014806,-122.98109244,0.00000000,
16.6860,-0.0492,1.5983,0.1438,-1.0461,6.2098,-2.2985,-1.9786,-0.6411,-0.2872,49.28014806,-122.98109244,0.00000000,
16.7060,-0.0492,1.5983,0.1438,1.1429,6.2005,-2.2693,-1.9786,-0.6411,-0.2872,49.28014806,-122.98109244,0.00000000,
16.7440,0.0310,1.0607,-0.0840,1.1429,6.2005,-2.2693,-1.9786,-0.6411,-0.2872,49.28014806,-122.98109244,0.00000000,
16.7630,0.0310,1.0607,-0.0840,1.1429,6.2005,-2.2693,-1.3212,-2.2335,-0.3331,49.28014806,-122.98109244,0.00000000,
16.7850,0.0310,1.0607,-0.0840,-2.0961,2.1132,-3.4565,-1.3212,-2.2335,-0.3331,49.28014806,-122.98109244,0.00000000,
16.8000,0.2781,0.6838,0.1324,-2.0961,2.1132,-3.4565,-1.3212,-2.2335,-0.3331,49.28014806,-122.98109244,0.00000000,
16.8200,0.2781,0.6838,0.1324,-2.0961,2.1132,-3.4565,-0.4267,-1.3378,-0.6467,49.28014806,-122.98109244,0.00000000,
16.8380,0.2781,0.6838,0.1324,2.0657,-0.3312,-3.1184,-0.4267,-1.3378,-0.6467,49.28014806,-122.98109244,0.00000000,
16.8770,0.1670,0.3058,0.0708,2.0657,-0.3312,-3.1184,-0.4267,-1.3378,-0.6467,49.28014806,-122.98109244,0.00000000,
16.8950,0.1670,0.3058,0.0708,2.0657,-0.3312,-3.1184,0.7094,-0.0328,-0.6075,49.28014806,-122.98109244,0.00000000,
16.9140,0.1670,0.3058,0.0708,2.4021,-5.7387,-1.2479,0.7094,-0.0328,-0.6075,49.28014806,-122.98109244,0.00000000,
16.9340,-0.0438,0.6971,0.2722,2.4021,-5.7387,-1.2479,0.7094,-0.0328,-0.6075,49.28014806,-122.98109244,0.00000000,
16.9530,-0.0438,0.6971,0.2722,2.4021,-5.7387,-1.2479,0.9916,-0.8364,-0.2153,49.28014806,-122.98109244,0.00000000,
16.9730,-0.0438,0.6971,0.2722,0.2693,-5.3897,-2.1889,0.9916,-0.8364,-0.2153,49.28014806,-122.98109244,0.00000000,
17.0110,0.2145,1.3897,0.6823,0.2693,-5.3897,-2.1889,0.9916,-0.8364,-0.2153,49.28014806,-122.98109244,0.00000000,
17.0300,0.2145,1.3897,0.6823,0.2693,-5.3897,-2.1889,-0.7609,0.0248,-0.4944,49.28014806,-122.98109244,0.00000000,
17.0490,0.2145,1.3897,0.6823,1.0678,2.7036,3.3722,-0.7609,0.0248,-0.4944,49.28014806,-122.98109244,0.00000000,
17.0670,0.0023,0.6003,0.3968,1.0678,2.7036,3.3722,-0.7609,0.0248,-0.4944,49.28014806,-122.98109244,0.00000000,
17.0860,0.0023,0.6003,0.3968,1.0678,2.7036,3.3722,-0.0542,0.0148,-0.5284,49.28014806,-122.98109244,0.00000000,
17.1050,0.0023,0.6003,0.3968,2.8516,-0.1500,2.0756,-0.0542,0.0148,-0.5284,49.28014806,-122.98109244,0.00000000,
17.1430,-0.1921,1.8546,0.0529,2.8516,-0.1500,2.0756,-0.0542,0.0148,-0.5284,49.28014806,-122.98109244,0.00000000,
17.1630,-0.1921,1.8546,0.0529,2.8516,-0.1500,2.0756,-0.5106,-1.0334,0.2818,49.28014806,-122.98109244,0.00000000,
17.1820,-0.1921,1.8546,0.0529,-4.1100,1.7240,0.5832,-0.5106,-1.0334,0.2818,49.28014806,-122.98109244,0.00000000,
17.2000,0.6921,0.5006,0.0617,-4.1100,1.7240,0.5832,-0.5106,-1.0334,0.2818,49.28014806,-122.98109244,0.00000000,
17.2180,0.6921,0.5006,0.0617,-4.1100,1.7240,0.5832,1.0387,1.8779,-0.0795,49.28014806,-122.98109244,0.00000000,
17.2390,0.6921,0.5006,0.0617,7.5774,-0.3888,-3.6282,1.0387,1.8779,-0.0795,49.28014806,-122.98109244,0.00000000,
17.2760,-0.4982,1.3739,-0.2115,7.5774,-0.3888,-3.6282,1.0387,1.8779,-0.0795,49.28014806,-122.98109244,0.00000000,
17.2960,-0.4982,1.3739,-0.2115,7.5774,-0.3888,-3.6282,1.4073,0.7440,-0.2898,49.28014806,-122.98109244,0.00000000,
17.3140,-0.4982,1.3739,-0.2115,-0.8190,5.5490,-2.4262,1.4073,0.7440,-0.2898,49.28014806,-122.98109244,0.00000000,
17.3340,-0.1857,0.8925,0.0223,-0.8190,5.5490,-2.4262,1.4073,0.7440,-0.2898,49.28014806,-122.98109244,0.00000000,
17.3560,-0.1857,0.8925,0.0223,-0.8190,5.5490,-2.4262,1.6026,-0.1332,-0.1343,49.28014806,-122.98109244,0.00000000,
17.3720,-0.1857,0.8925,0.0223,-2.0244,-2.1038,-0.6855,1.6026,-0.1332,-0.1343,49.28014806,-122.98109244,0.00000000,
17.4090,0.0296,0.8496,0.1806,-2.0244,-2.1038,-0.6855,1.6026,-0.1332,-0.1343,49.28014129,-122.98110214,0.00000000,
17.4300,0.0296,0.8496,0.1806,-2.0244,-2.1038,-0.6855,1.1665,0.7273,0.1724,49.28014129,-122.98110214,0.00000000,
17.4470,0.0296,0.8496,0.1806,0.4410,-1.2647,1.4845,1.1665,0.7273,0.1724,49.28014129,-122.98110214,0.00000000,
17.4660,-0.0881,0.9254,0.2141,0.4410,-1.2647,1.4845,1.1665,0.7273,0.1724,49.28014129,-122.98110214,0.00000000,
17.4950,-0.0881,0.9254,0.2141,0.4410,-1.2647,1.4845,0.5812,1.2229,0.1959,49.28014129,-122.98110214,0.00000000,
17.5140,-0.0881,0.9254,0.2141,0.3616,-1.0415,3.3264,0.5812,1.2229,0.1959,49.28014129,-122.98110214,0.00000000,
17.5350,-0.2402,0.8020,0.1453,0.3616,-1.0415,3.3264,0.5812,1.2229,0.1959,49.28014129,-122.98110214,0.00000000,
17.5520,-0.2402,0.8020,0.1453,0.3616,-1.0415,3.3264,0.1011,0.6901,0.3579,49.28014129,-122.98110214,0.00000000,
17.5710,-0.2402,0.8020,0.1453,-0.9767,-1.4917,2.6728,0.1011,0.6901,0.3579,49.28014129,-122.98110214,0.00000000,
17.6100,-0.1786,1.0010,0.2760,-0.9767,-1.4917,2.6728,0.1011,0.6901,0.3579,49.28014129,-122.98110214,0.00000000,
17.6290,-0.1786,1.0010,0.2760,-0.9767,-1.4917,2.6728,0.0000,0.7344,0.3713,49.28014129,-122.98110214,0.00000000,
17.6480,-0.1786,1.0010,0.2760,-2.6090,-0.8899,1.9649,0.0000,0.7344,0.3713,49.28014129,-122.98110214,0.00000000,
17.6660,-0.2291,1.2811,0.1000,-2.6090,-0.8899,1.9649,0.0000,0.7344,0.3713,49.28014129,-122.98110214,0.00000000,
17.6860,-0.2291,1.2811,0.1000,-2.6090,-0.8899,1.9649,-1.6371,0.2860,0.1680,49.28014129,-122.98110214,0.00000000,
17.7040,-0.2291,1.2811,0.1000,-1.4494,1.3054,1.1999,-1.6371,0.2860,0.1680,49.28014129,-122.98110214,0.00000000,
17.7430,0.0479,1.6347,-0.2572,-1.4494,1.3054,1.1999,-1.6371,0.2860,0.1680,49.28014129,-122.98110214,0.00000000,
17.7630,0.0479,1.6347,-0.2572,-1.4494,1.3054,1.1999,-2.4310,-1.2631,-0.2458,49.28014129,-122.98110214,0.00000000,
17.7810,0.0479,1.6347,-0.2572,-1.7379,5.2787,-4.3022,-2.4310,-1.2631,-0.2458,49.28014129,-122.98110214,0.00000000,
17.8000,-0.1245,1.3749,0.2237,-1.7379,5.2787,-4.3022,-2.4310,-1.2631,-0.2458,49.28014129,-122.98110214,0.00000000,
17.8190,-0.1245,1.3749,0.2237,-1.7379,5.2787,-4.3022,-1.6357,-0.0236,-0.1767,49.28014129,-122.98110214,0.00000000,
17.8390,-0.1245,1.3749,0.2237,1.8706,6.1839,-0.7885,-1.6357,-0.0236,-0.1767,49.28014129,-122.98110214,0.00000000,
17.8760,0.0731,0.8787,-0.0562,1.8706,6.1839,-0.7885,-1.6357,-0.0236,-0.1767,49.28014129,-122.98110214,0.00000000,
17.8950,0.0731,0.8787,-0.0562,1.8706,6.1839,-0.7885,-0.8929,-1.9991,-0.1116,49.28014129,-122.98110214,0.00000000,
17.9140,0.0731,0.8787,-0.0562,-2.2122,-0.0803,-4.0540,-0.8929,-1.9991,-0.1116,49.28014129,-122.98110214,0.00000000,
17.9330,0.3200,0.5684,0.2829,-2.2122,-0.0803,-4.0540,-0.8929,-1.9991,-0.1116,49.28014129,-122.98110214,0.00000000,
17.9520,0.3200,0.5684,0.2829,-2.2122,-0.0803,-4.0540,0.2596,-0.3325,-0.5677,49.28014129,-122.98110214,0.00000000,
17.9700,0.3200,0.5684,0.2829,3.6138,-2.1179,-1.4808,0.2596,-0.3325,-0.5677,49.28014129,-122.98110214,0.00000000,
18.0090,-0.0175,0.5230,0.0145,3.6138,-2.1179,-1.4808,0.2596,-0.3325,-0.5677,49.28014129,-122.98110214,0.00000000,
18.0290,-0.0175,0.5230,0.0145,3.6138,-2.1179,-1.4808,0.7645,0.0317,-0.3841,49.28014129,-122.98110214,0.00000000,
18.0460,-0.0175,0.5230,0.0145,1.7500,-5.0541,-1.3239,0.7645,0.0317,-0.3841,49.28014129,-122.98110214,0.00000000,
18.0660,-0.1179,0.8680,0.5327,1.7500,-5.0541,-1.3239,0.7645,0.0317,-0.3841,49.28014129,-122.98110214,0.00000000,
18.0860,-0.1179,0.8680,0.5327,1.7500,-5.0541,-1.3239,0.6420,-0.7455,-0.2933,49.28014129,-122.98110214,0.00000000,
18.1050,-0.1179,0.8680,0.5327,-0.8173,-2.5026,0.2164,0.6420,-0.7455,-0.2933,49.28014129,-122.98110214,0.00000000,
18.1430,0.0756,1.2253,0.6245,-0.8173,-2.5026,0.2164,0.6420,-0.7455,-0.2933,49.28014129,-122.98110214,0.00000000,
18.1620,0.0756,1.2253,0.6245,-0.8173,-2.5026,0.2164,-0.6560,-0.3344,-0.4616,49.28014129,-122.98110214,0.00000000,
18.1800,0.0756,1.2253,0.6245,0.3341,1.6908,3.6316,-0.6560,-0.3344,-0.4616,49.28014129,-122.98110214,0.00000000,
18.2000,0.0106,0.5747,0.3995,0.3341,1.6908,3.6316,-0.6560,-0.3344,-0.4616,49.28014129,-122.98110214,0.00000000,
18.2180,0.0106,0.5747,0.3995,0.3341,1.6908,3.6316,0.0749,-0.1887,-0.4150,49.28014129,-122.98110214,0.00000000,
18.2370,0.0106,0.5747,0.3995,2.2292,-1.2588,1.9221,0.0749,-0.1887,-0.4150,49.28014129,-122.98110214,0.00000000,
18.2770,0.1092,1.7388,0.1464,2.2292,-1.2588,1.9221,0.0749,-0.1887,-0.4150,49.28014129,-122.98110214,0.00000000,
18.2960,0.1092,1.7388,0.1464,2.2292,-1.2588,1.9221,-0.4482,-0.4116,0.3067,49.28014129,-122.98110214,0.00000000,
18.3140,0.1092,1.7388,0.1464,-0.6701,2.8029,0.0468,-0.4482,-0.4116,0.3067,49.28014129,-122.98110214,0.00000000,
18.3410,0.3350,0.6445,-0.0850,-0.6701,2.8029,0.0468,-0.4482,-0.4116,0.3067,49.28014129,-122.98110214,0.00000000,
18.3560,0.3350,0.6445,-0.0850,-0.6701,2.8029,0.0468,0.9197,1.7284,-0.1071,49.28014129,-122.98110214,0.00000000,
18.3710,0.3350,0.6445,-0.0850,5.5304,-0.1240,-2.8583,0.9197,1.7284,-0.1071,49.28013366,-122.98110960,0.00000000,
18.4090,-0.3242,1.3561,-0.1016,5.5304,-0.1240,-2.8583,0.9197,1.7284,-0.1071,49.28013366,-122.98110960,0.00000000,
18.4280,-0.3242,1.3561,-0.1016,5.5304,-0.1240,-2.8583,1.2876,0.8274,-0.0631,49.28013366,-122.98110960,0.00000000,
18.4470,-0.3242,1.3561,-0.1016,-1.1424,3.9092,-2.3507,1.2876,0.8274,-0.0631,49.28013366,-122.98110960,0.00000000,
18.4660,-0.1399,0.9109,0.0779,-1.1424,3.9092,-2.3507,1.2876,0.8274,-0.0631,49.28013366,-122.98110960,0.00000000,
18.4950,-0.1399,0.9109,0.0779,-1.1424,3.9092,-2.3507,1.5316,0.5848,-0.0650,49.28013366,-122.98110960,0.00000000,
18.5140,-0.1399,0.9109,0.0779,-0.1148,-1.4664,0.2981,1.5316,0.5848,-0.0650,49.28013366,-122.98110960,0.00000000,
18.5350,-0.1328,0.8574,0.1469,-0.1148,-1.4664,0.2981,1.5316,0.5848,-0.0650,49.28013366,-122.98110960,0.00000000,
18.5520,-0.1328,0.8574,0.1469,-0.1148,-1.4664,0.2981,1.1857,0.8571,-0.0312,49.28013366,-122.98110960,0.00000000,
18.5710,-0.1328,0.8574,0.1469,-0.2473,-0.7985,1.6148,1.1857,0.8571,-0.0312,49.28013366,-122.98110960,0.00000000,
18.6110,-0.1510,0.8123,0.1224,-0.2473,-0.7985,1.6148,1.1857,0.8571,-0.0312,49.28013366,-122.98110960,0.00000000,
18.6290,-0.1510,0.8123,0.1224,-0.2473,-0.7985,1.6148,0.8205,0.9744,0.0524,49.28013366,-122.98110960,0.00000000,
18.6480,-0.1510,0.8123,0.1224,-0.2867,-1.6146,2.7797,0.8205,0.9744,0.0524,49.28013366,-122.98110960,0.00000000,
18.6660,-0.1814,0.8974,0.0822,-0.2867,-1.6146,2.7797,0.8205,0.9744,0.0524,49.28013366,-122.98110960,0.00000000,
18.6850,-0.1814,0.8974,0.0822,-0.2867,-1.6146,2.7797,0.3605,0.7630,0.1994,49.28013366,-122.98110960,0.00000000,
18.7050,-0.1814,0.8974,0.0822,-0.7420,-1.6905,2.0092,0.3605,0.7630,0.1994,49.28013366,-122.98110960,0.00000000,
18.7430,-0.1548,0.9414,0.2159,-0.7420,-1.6905,2.0092,0.3605,0.7630,0.1994,49.28013366,-122.98110960,0.00000000,
18.7620,-0.1548,0.9414,0.2159,-0.7420,-1.6905,2.0092,-0.0532,1.2470,0.2804,49.28013366,-122.98110960,0.00000000,
18.7810,-0.1548,0.9414,0.2159,-0.9829,-0.3775,2.4148,-0.0532,1.2470,0.2804,49.28013366,-122.98110960,0.00000000,
18.7990,-0.3033,1.4333,0.0344,-0.9829,-0.3775,2.4148,-0.0532,1.2470,0.2804,49.28013366,-122.98110960,0.00000000,
18.8190,-0.3033,1.4333,0.0344,-0.9829,-0.3775,2.4148,-1.4287,0.5023,0.0720,49.28013366,-122.98110960,0.00000000,
18.8370,-0.3033,1.4333,0.0344,-2.0842,1.2362,1.3684,-1.4287,0.5023,0.0720,49.28013366,-122.98110960,0.00000000,
18.8750,0.0156,1.5482,-0.0604,-2.0842,1.2362,1.3684,-1.4287,0.5023,0.0720,49.28013366,-122.98110960,0.00000000,
18.8950,0.0156,1.5482,-0.0604,-2.0842,1.2362,1.3684,-2.2493,-0.5332,0.0627,49.28013366,-122.98110960,0.00000000,
18.9140,0.0156,1.5482,-0.0604,-1.4100,5.1433,-2.1179,-2.2493,-0.5332,0.0627,49.28013366,-122.98110960,0.00000000,
18.9330,-0.0810,1.3789,0.0942,-1.4100,5.1433,-2.1179,-2.2493,-0.5332,0.0627,49.28013366,-122.98110960,0.00000000,
18.9520,-0.0810,1.3789,0.0942,-1.4100,5.1433,-2.1179,-1.7837,-0.6610,0.1313,49.28013366,-122.98110960,0.00000000,
18.9700,-0.0810,1.3789,0.0942,1.3837,6.5666,-2.0830,-1.7837,-0.6610,0.1313,49.28013366,-122.98110960,0.00000000,
19.0090,0.0885,0.8606,0.0864,1.3837,6.5666,-2.0830,-1.7837,-0.6610,0.1313,49.28013366,-122.98110960,0.00000000,
19.0280,0.0885,0.8606,0.0864,1.3837,6.5666,-2.0830,-1.1677,-0.9008,0.3387,49.28013366,-122.98110960,0.00000000,
19.0470,0.0885,0.8606,0.0864,-0.9110,-0.2944,-2.2933,-1.1677,-0.9008,0.3387,49.28013366,-122.98110960,0.00000000,
19.0660,0.2210,0.5514,0.0894,-0.9110,-0.2944,-2.2933,-1.1677,-0.9008,0.3387,49.28013366,-122.98110960,0.00000000,
19.0840,0.2210,0.5514,0.0894,-0.9110,-0.2944,-2.2933,-0.2822,-0.1739,-0.2511,49.28013366,-122.98110960,0.00000000,
19.1040,0.2210,0.5514,0.0894,2.5363,-2.4279,-2.2541,-0.2822,-0.1739,-0.2511,49.28013366,-122.98110960,0.00000000,
19.1430,0.0323,0.3567,0.0750,2.5363,-2.4279,-2.2541,-0.2822,-0.1739,-0.2511,49.28013366,-122.98110960,0.00000000,
19.1610,0.0323,0.3567,0.0750,2.5363,-2.4279,-2.2541,0.8249,0.3871,-0.3415,49.28013366,-122.98110960,0.00000000,
19.1800,0.0323,0.3567,0.0750,1.3080,-5.6088,-1.5809,0.8249,0.3871,-0.3415,49.28013366,-122.98110960,0.00000000,
19.1990,-0.1531,0.7856,0.5860,1.3080,-5.6088,-1.5809,0.8249,0.3871,-0.3415,49.28013366,-122.98110960,0.00000000,
19.2180,-0.1531,0.7856,0.5860,1.3080,-5.6088,-1.5809,1.0474,-0.5156,-0.0399,49.28013366,-122.98110960,0.00000000,
19.2370,-0.1531,0.7856,0.5860,-0.1609,-5.5795,0.4953,1.0474,-0.5156,-0.0399,49.28013366,-122.98110960,0.00000000,
19.2760,0.2792,1.3039,0.7517,-0.1609,-5.5795,0.4953,1.0474,-0.5156,-0.0399,49.28013366,-122.98110960,0.00000000,
19.2950,0.2792,1.3039,0.7517,-0.1609,-5.5795,0.4953,-0.8342,0.1745,-0.4280,49.28013366,-122.98110960,0.00000000,
19.3150,0.2792,1.3039,0.7517,0.5445,4.9633,5.8767,-0.8342,0.1745,-0.4280,49.28013366,-122.98110960,0.00000000,
19.3320,-0.1858,1.2582,-0.0079,0.5445,4.9633,5.8767,-0.8342,0.1745,-0.4280,49.28013366,-122.98110960,0.00000000,
19.3520,-0.1858,1.2582,-0.0079,0.5445,4.9633,5.8767,-0.9314,-0.1512,-0.0093,49.28013366,-122.98110960,0.00000000,
19.3700,-0.1858,1.2582,-0.0079,1.5377,-0.3415,0.3114,-0.9314,-0.1512,-0.0093,49.28013366,-122.98110960,0.00000000,
19.4080,0.3387,0.8725,-0.0871,1.5377,-0.3415,0.3114,-0.9314,-0.1512,-0.0093,49.28013366,-122.98110960,0.00000000,
19.4270,0.3387,0.8725,-0.0871,1.5377,-0.3415,0.3114,0.4001,1.3137,0.1303,49.28013366,-122.98110960,0.00000000,
19.4470,0.3387,0.8725,-0.0871,1.3127,2.8499,-4.9809,0.4001,1.3137,0.1303,49.28013366,-122.98110960,0.00000000,
19.4650,-0.2627,1.4763,-0.0704,1.3127,2.8499,-4.9809,0.4001,1.3137,0.1303,49.28013366,-122.98110960,0.00000000,
19.4950,-0.2627,1.4763,-0.0704,1.3127,2.8499,-4.9809,1.2623,1.2142,0.0001,49.28013366,-122.98110960,0.00000000,
19.5140,-0.2627,1.4763,-0.0704,1.3136,2.1021,-1.5972,1.2623,1.2142,0.0001,49.28013366,-122.98110960,0.00000000,
19.5350,-0.1961,0.9344,0.1265,1.3136,2.1021,-1.5972,1.2623,1.2142,0.0001,49.28013366,-122.98110960,0.00000000,
19.5510,-0.1961,0.9344,0.1265,1.3136,2.1021,-1.5972,1.6150,0.5445,0.1247,49.28013366,-122.98110960,0.00000000,
19.5710,-0.1961,0.9344,0.1265,-1.4136,0.7998,-0.2290,1.6150,0.5445,0.1247,49.28013366,-122.98110960,0.00000000,
19.6080,-0.1697,0.8617,0.1156,-1.4136,0.7998,-0.2290,1.6150,0.5445,0.1247,49.28013366,-122.98110960,0.00000000,
19.6270,-0.1697,0.8617,0.1156,-1.4136,0.7998,-0.2290,1.3253,0.4127,0.0606,49.28013366,-122.98110960,0.00000000,
19.6460,-0.1697,0.8617,0.1156,-1.2337,-0.8099,1.4728,1.3253,0.4127,0.0606,49.28013366,-122.98110960,0.00000000,
19.6660,0.0318,0.7836,0.2351,-1.2337,-0.8099,1.4728,1.3253,0.4127,0.0606,49.28013366,-122.98110960,0.00000000,
19.6840,0.0318,0.7836,0.2351,-1.2337,-0.8099,1.4728,0.9862,1.2767,0.2886,49.28013366,-122.98110960,0.00000000,
19.7040,0.0318,0.7836,0.2351,0.3376,-2.5874,2.7576,0.9862,1.2767,0.2886,49.28013366,-122.98110960,0.00000000,
19.7430,-0.1612,0.7143,0.1519,0.3376,-2.5874,2.7576,0.9862,1.2767,0.2886,49.28013366,-122.98110960,0.00000000,
19.7610,-0.1612,0.7143,0.1519,0.3376,-2.5874,2.7576,0.5051,1.3084,0.5057,49.28013366,-122.98110960,0.00000000,
19.7800,-0.1612,0.7143,0.1519,-0.2348,-2.0417,2.8383,0.5051,1.3084,0.5057,49.28013366,-122.98110960,0.00000000,
19.7990,-0.2821,0.8643,0.2501,-0.2348,-2.0417,2.8383,0.5051,1.3084,0.5057,49.28013366,-122.98110960,0.00000000,
19.8160,-0.2821,0.8643,0.2501,-0.2348,-2.0417,2.8383,0.1863,0.6444,0.4125,49.28013366,-122.98110960,0.00000000,
19.8370,-0.2821,0.8643,0.2501,-2.9359,-1.9438,2.5963,0.1863,0.6444,0.4125,49.28013366,-122.98110960,0.00000000,
19.8750,-0.2350,1.3155,0.0637,-2.9359,-1.9438,2.5963,0.1863,0.6444,0.4125,49.28013366,-122.98110960,0.00000000,
19.8940,-0.2350,1.3155,0.0637,-2.9359,-1.9438,2.5963,-1.2353,0.3541,0.0479,49.28013366,-122.98110960,0.00000000,
19.9140,-0.2350,1.3155,0.0637,-2.4638,0.1608,2.1052,-1.2353,0.3541,0.0479,49.28013366,-122.98110960,0.00000000,
19.9330,-0.0839,1.7501,-0.2511,-2.4638,0.1608,2.1052,-1.2353,0.3541,0.0479,49.28013366,-122.98110960,0.00000000,
19.9500,-0.0839,1.7501,-0.2511,-2.4638,0.1608,2.1052,-2.1067,-1.1944,-0.4024,49.28013366,-122.98110960,0.00000000,
19.9690,-0.0839,1.7501,-0.2511,-2.3111,5.9799,-3.4434,-2.1067,-1.1944,-0.4024,49.28013366,-122.98110960,0.00000000,
20.0090,-0.1709,1.4854,0.1645,-2.3111,5.9799,-3.4434,-2.1067,-1.1944,-0.4024,49.28013366,-122.98110960,0.00000000,
20.0270,-0.1709,1.4854,0.1645,-2.3111,5.9799,-3.4434,-1.8189,-0.7311,-0.1954,49.28013366,-122.98110960,0.00000000,
20.0450,-0.1709,1.4854,0.1645,0.3772,7.7746,-1.3049,-1.8189,-0.7311,-0.1954,49.28013366,-122.98110960,0.00000000,
20.0650,0.1774,1.1214,-0.0541,0.3772,7.7746,-1.3049,-1.8189,-0.7311,-0.1954,49.28013366,-122.98110960,0.00000000,
20.0840,0.1774,1.1214,-0.0541,0.3772,7.7746,-1.3049,-1.2735,-2.0647,-0.2111,49.28013366,-122.98110960,0.00000000,
20.1030,0.1774,1.1214,-0.0541,-0.4225,1.6990,-3.3751,-1.2735,-2.0647,-0.2111,49.28013366,-122.98110960,0.00000000,
20.1420,0.2003,0.6237,0.2491,-0.4225,1.6990,-3.3751,-1.2735,-2.0647,-0.2111,49.28013366,-122.98110960,0.00000000,
20.1610,0.2003,0.6237,0.2491,-0.4225,1.6990,-3.3751,-0.2343,-0.4884,-0.5045,49.28013366,-122.98110960,0.00000000,
20.1790,0.2003,0.6237,0.2491,2.6253,-0.7432,-1.9365,-0.2343,-0.4884,-0.5045,49.28013366,-122.98110960,0.00000000,
20.1970,0.0966,0.3358,0.0091,2.6253,-0.7432,-1.9365,-0.2343,-0.4884,-0.5045,49.28013366,-122.98110960,0.00000000,
20.2170,0.0966,0.3358,0.0091,2.6253,-0.7432,-1.9365,0.5521,0.0125,-0.2642,49.28013366,-122.98110960,0.00000000,
20.2360,0.0966,0.3358,0.0091,1.7149,-5.5123,-1.2750,0.5521,0.0125,-0.2642,49.28013366,-122.98110960,0.00000000,
20.2750,-0.1412,0.5114,0.3527,1.7149,-5.5123,-1.2750,0.5521,0.0125,-0.2642,49.28013366,-122.98110960,0.00000000,
20.2930,-0.1412,0.5114,0.3527,1.7149,-5.5123,-1.2750,1.0654,-1.4689,0.1458,49.28013366,-122.98110960,0.00000000,
20.3130,-0.1412,0.5114,0.3527,-0.1923,-6.7258,-1.0717,1.0654,-1.4689,0.1458,49.28013366,-122.98110960,0.00000000,
20.3320,0.3351,1.3897,0.8230,-0.1923,-6.7258,-1.0717,1.0654,-1.4689,0.1458,49.28013366,-122.98110960,0.00000000,
20.3500,0.3351,1.3897,0.8230,-0.1923,-6.7258,-1.0717,-0.7278,0.0132,-0.0135,49.28013366,-122.98110960,0.00000000,
20.3680,0.3351,1.3897,0.8230,-0.8491,3.0884,5.2894,-0.7278,0.0132,-0.0135,49.28013366,-122.98110960,0.00000000,
20.4070,0.1075,1.2037,0.0299,-0.8491,3.0884,5.2894,-0.7278,0.0132,-0.0135,49.28012466,-122.98111428,0.00000000,
20.4260,0.1075,1.2037,0.0299,-0.8491,3.0884,5.2894,-0.9604,0.3789,0.0079,49.28012466,-122.98111428,0.00000000,
20.4450,0.1075,1.2037,0.0299,5.2773,-0.0056,0.4533,-0.9604,0.3789,0.0079,49.28012466,-122.98111428,0.00000000,
20.4650,0.0084,1.0742,-0.1655,5.2773,-0.0056,0.4533,-0.9604,0.3789,0.0079,49.28012466,-122.98111428,0.00000000,
20.4940,0.0084,1.0742,-0.1655,5.2773,-0.0056,0.4533,0.4203,0.7944,-0.0535,49.28012466,-122.98111428,0.00000000,
20.5140,0.0084,1.0742,-0.1655,-1.8460,4.3628,-4.5805,0.4203,0.7944,-0.0535,49.28012466,-122.98111428,0.00000000,
20.5340,0.0034,1.3443,0.0108,-1.8460,4.3628,-4.5805,0.4203,0.7944,-0.0535,49.28012466,-122.98111428,0.00000000,
20.5510,0.0034,1.3443,0.0108,-1.8460,4.3628,-4.5805,1.3721,1.0002,0.0074,49.28012466,-122.98111428,0.00000000,
20.5690,0.0034,1.3443,0.0108,1.2287,1.1142,-2.4601,1.3721,1.0002,0.0074,49.28012466,-122.98111428,0.00000000,
20.6070,-0.1315,0.9193,0.0638,1.2287,1.1142,-2.4601,1.3721,1.0002,0.0074,49.28012466,-122.98111428,0.00000000,
20.6270,-0.1315,0.9193,0.0638,1.2287,1.1142,-2.4601,1.8328,1.2399,-0.0177,49.28012466,-122.98111428,0.00000000,
20.6450,-0.1315,0.9193,0.0638,1.1286,1.0701,0.5418,1.8328,1.2399,-0.0177,49.28012466,-122.98111428,0.00000000,
20.6650,-0.3632,0.8464,0.0546,1.1286,1.0701,0.5418,1.8328,1.2399,-0.0177,49.28012466,-122.98111428,0.00000000,
20.6840,-0.3632,0.8464,0.0546,1.1286,1.0701,0.5418,1.3888,0.5180,0.0046,49.28012466,-122.98111428,0.00000000,
20.7030,-0.3632,0.8464,0.0546,-3.2253,-1.3805,0.5442,1.3888,0.5180,0.0046,49.28012466,-122.98111428,0.00000000,
20.7400,-0.0832,0.8137,0.2184,-3.2253,-1.3805,0.5442,1.3888,0.5180,0.0046,49.28012466,-122.98111428,0.00000000,
20.7580,-0.0832,0.8137,0.2184,-3.2253,-1.3805,0.5442,0.9375,0.6447,0.0983,49.28012466,-122.98111428,0.00000000,
20.7780,-0.0832,0.8137,0.2184,-1.7646,-1.9649,2.3320,0.9375,0.6447,0.0983,49.28012466,-122.98111428,0.00000000,
20.7970,0.0260,0.7689,0.1381,-1.7646,-1.9649,2.3320,0.9375,0.6447,0.0983,49.28012466,-122.98111428,0.00000000,
20.8160,0.0260,0.7689,0.1381,-1.7646,-1.9649,2.3320,0.5467,1.3900,0.5195,49.28012466,-122.98111428,0.00000000,
20.8350,0.0260,0.7689,0.1381,0.3267,-1.7941,3.3453,0.5467,1.3900,0.5195,49.28012466,-122.98111428,0.00000000,
20.8740,-0.2959,0.8605,0.1481,0.3267,-1.7941,3.3453,0.5467,1.3900,0.5195,49.28012466,-122.98111428,0.00000000,
20.8930,-0.2959,0.8605,0.1481,0.3267,-1.7941,3.3453,0.2037,0.6215,0.5441,49.28012466,-122.98111428,0.00000000,
20.9120,-0.2959,0.8605,0.1481,-2.2928,-1.8767,2.0353,0.2037,0.6215,0.5441,49.28012466,-122.98111428,0.00000000,
20.9300,-0.2513,1.2455,0.1805,-2.2928,-1.8767,2.0353,0.2037,0.6215,0.5441,49.28012466,-122.98111428,0.00000000,
20.9510,-0.2513,1.2455,0.1805,-2.2928,-1.8767,2.0353,-0.9327,0.6087,0.3401,49.28012466,-122.98111428,0.00000000,
20.9690,-0.2513,1.2455,0.1805,-3.1125,-0.3999,2.7921,-0.9327,0.6087,0.3401,49.28012466,-122.98111428,0.00000000,
21.0070,-0.1550,1.7120,-0.2752,-3.1125,-0.3999,2.7921,-0.9327,0.6087,0.3401,49.28012466,-122.98111428,0.00000000,
21.0250,-0.1550,1.7120,-0.2752,-3.1125,-0.3999,2.7921,-2.3298,-1.4040,-0.0758,49.28012466,-122.98111428,0.00000000,
21.0450,-0.1550,1.7120,-0.2752,-3.5518,6.4514,-2.1168,-2.3298,-1.4040,-0.0758,49.28012466,-122.98111428,0.00000000,
21.0640,-0.0813,1.6384,0.1532,-3.5518,6.4514,-2.1168,-2.3298,-1.4040,-0.0758,49.28012466,-122.98111428,0.00000000,
21.0830,-0.0813,1.6384,0.1532,-3.5518,6.4514,-2.1168,-2.1174,-0.8517,-0.4286,49.28012466,-122.98111428,0.00000000,
21.1030,-0.0813,1.6384,0.1532,1.0521,7.3629,-2.7358,-2.1174,-0.8517,-0.4286,49.28012466,-122.98111428,0.00000000,
21.1400,-0.0371,1.0956,-0.1653,1.0521,7.3629,-2.7358,-2.1174,-0.8517,-0.4286,49.28012466,-122.98111428,0.00000000,
21.1590,-0.0371,1.0956,-0.1653,1.0521,7.3629,-2.7358,-1.3941,-2.6278,-0.5151,49.28012466,-122.98111428,0.00000000,
21.1790,-0.0371,1.0956,-0.1653,-2.9833,2.2677,-3.3351,-1.3941,-2.6278,-0.5151,49.28012466,-122.98111428,0.00000000,
21.1970,0.2921,0.6131,0.1082,-2.9833,2.2677,-3.3351,-1.3941,-2.6278,-0.5151,49.28012466,-122.98111428,0.00000000,
21.2160,0.2921,0.6131,0.1082,-2.9833,2.2677,-3.3351,-0.5911,-1.3111,-0.7893,49.28012466,-122.98111428,0.00000000,
21.2360,0.2921,0.6131,0.1082,2.3891,-0.3675,-4.3483,-0.5911,-1.3111,-0.7893,49.28012466,-122.98111428,0.00000000,
21.2740,0.1251,0.2540,0.0539,2.3891,-0.3675,-4.3483,-0.5911,-1.3111,-0.7893,49.28012466,-122.98111428,0.00000000,
21.2930,0.1251,0.2540,0.0539,2.3891,-0.3675,-4.3483,0.7209,-0.1206,-0.6581,49.28012466,-122.98111428,0.00000000,
21.3110,0.1251,0.2540,0.0539,2.4688,-6.5696,-0.7660,0.7209,-0.1206,-0.6581,49.28012466,-122.98111428,0.00000000,
21.3300,-0.1192,0.7414,0.3332,2.4688,-6.5696,-0.7660,0.7209,-0.1206,-0.6581,49.28012466,-122.98111428,0.00000000,
21.3490,-0.1192,0.7414,0.3332,2.4688,-6.5696,-0.7660,0.5936,-1.2057,-0.0125,49.28012466,-122.98111428,0.00000000,
21.3670,-0.1192,0.7414,0.3332,-0.9480,-5.4338,-1.6933,0.5936,-1.2057,-0.0125,49.28012466,-122.98111428,0.00000000,
21.4060,0.2795,1.1194,0.7419,-0.9480,-5.4338,-1.6933,0.5936,-1.2057,-0.0125,49.28012466,-122.98111428,0.00000000,
21.4250,0.2795,1.1194,0.7419,-0.9480,-5.4338,-1.6933,-0.6274,-0.1140,-0.2924,49.28012466,-122.98111428,0.00000000,
21.4450,0.2795,1.1194,0.7419,1.4641,1.6029,3.9693,-0.6274,-0.1140,-0.2924,49.28012466,-122.98111428,0.00000000,
21.4640,-0.0767,0.9989,0.5320,1.4641,1.6029,3.9693,-0.6274,-0.1140,-0.2924,49.28012466,-122.98111428,0.00000000,
21.4930,-0.0767,0.9989,0.5320,1.4641,1.6029,3.9693,-0.2960,-0.1161,-0.2055,49.28012466,-122.98111428,0.00000000,
21.5120,-0.0767,0.9989,0.5320,1.7576,-0.6914,1.9367,-0.2960,-0.1161,-0.2055,49.28012466,-122.98111428,0.00000000,
21.5300,0.2601,1.4195,-0.0339,1.7576,-0.6914,1.9367,-0.2960,-0.1161,-0.2055,49.28012466,-122.98111428,0.00000000,
21.5490,0.2601,1.4195,-0.0339,1.7576,-0.6914,1.9367,-0.7204,-0.3177,0.4387,49.28012466,-122.98111428,0.00000000,
21.5690,0.2601,1.4195,-0.0339,-1.6243,5.2665,-2.1529,-0.7204,-0.3177,0.4387,49.28012466,-122.98111428,0.00000000,
21.6060,0.1146,0.8996,-0.0659,-1.6243,5.2665,-2.1529,-0.7204,-0.3177,0.4387,49.28012466,-122.98111428,0.00000000,
21.6260,0.1146,0.8996,-0.0659,-1.6243,5.2665,-2.1529,1.0905,2.0687,-0.2190,49.28012466,-122.98111428,0.00000000,
21.6440,0.1146,0.8996,-0.0659,5.9563,-1.7168,-1.0331,1.0905,2.0687,-0.2190,49.28012466,-122.98111428,0.00000000,
21.6630,-0.3481,1.2199,0.0124,5.9563,-1.7168,-1.0331,1.0905,2.0687,-0.2190,49.28012466,-122.98111428,0.00000000,
21.6830,-0.3481,1.2199,0.0124,5.9563,-1.7168,-1.0331,1.4574,0.2613,0.0140,49.28012466,-122.98111428,0.00000000,
21.7020,-0.3481,1.2199,0.0124,-3.6091,4.1908,-2.5804,1.4574,0.2613,0.0140,49.28012466,-122.98111428,0.00000000,
21.7400,-0.1869,0.9218,0.1210,-3.6091,4.1908,-2.5804,1.4574,0.2613,0.0140,49.28012466,-122.98111428,0.00000000,
21.7590,-0.1869,0.9218,0.1210,-3.6091,4.1908,-2.5804,1.8302,0.1551,-0.0881,49.28012466,-122.98111428,0.00000000,
21.7780,-0.1869,0.9218,0.1210,-1.3300,-1.2980,1.2055,1.8302,0.1551,-0.0881,49.28012466,-122.98111428,0.00000000,
21.7960,-0.0746,0.8277,0.1215,-1.3300,-1.2980,1.2055,1.8302,0.1551,-0.0881,49.28012466,-122.98111428,0.00000000,
21.8160,-0.0746,0.8277,0.1215,-1.3300,-1.2980,1.2055,1.5225,0.3058,0.1048,49.28012466,-122.98111428,0.00000000,
21.8350,-0.0746,0.8277,0.1215,-1.0656,-1.1924,1.7063,1.5225,0.3058,0.1048,49.28012466,-122.98111428,0.00000000,
21.8740,0.0022,0.8644,0.2483,-1.0656,-1.1924,1.7063,1.5225,0.3058,0.1048,49.28012466,-122.98111428,0.00000000,
21.8920,0.0022,0.8644,0.2483,-1.0656,-1.1924,1.7063,1.1242,1.1803,0.2989,49.28012466,-122.98111428,0.00000000,
21.9110,0.0022,0.8644,0.2483,0.3537,-1.6137,3.2942,1.1242,1.1803,0.2989,49.28012466,-122.98111428,0.00000000,
21.9300,-0.2304,0.7281,0.1043,0.3537,-1.6137,3.2942,1.1242,1.1803,0.2989,49.28012466,-122.98111428,0.00000000,
21.9490,-0.2304,0.7281,0.1043,0.3537,-1.6137,3.2942,0.4990,0.8899,0.4326,49.28012466,-122.98111428,0.00000000,
21.9680,-0.2304,0.7281,0.1043,-1.0116,-1.9733,3.2995,0.4990,0.8899,0.4326,49.28012466,-122.98111428,0.00000000,
22.0060,-0.1636,0.9231,0.1743,-1.0116,-1.9733,3.2995,0.4990,0.8899,0.4326,49.28012466,-122.98111428,0.00000000,
22.0250,-0.1636,0.9231,0.1743,-1.0116,-1.9733,3.2995,0.1393,0.4833,0.3430,49.28012466,-122.98111428,0.00000000,
22.0450,-0.1636,0.9231,0.1743,-3.2124,-1.8894,2.7661,0.1393,0.4833,0.3430,49.28012466,-122.98111428,0.00000000,
22.0630,-0.1606,1.5903,-0.0767,-3.2124,-1.8894,2.7661,0.1393,0.4833,0.3430,49.28012466,-122.98111428,0.00000000,
22.0830,-0.1606,1.5903,-0.0767,-3.2124,-1.8894,2.7661,-1.6502,0.2820,-0.0544,49.28012466,-122.98111428,0.00000000,
22.1020,-0.1606,1.5903,-0.0767,-1.1225,2.7302,0.5054,-1.6502,0.2820,-0.0544,49.28012466,-122.98111428,0.00000000,
22.1390,0.0620,1.6957,-0.2036,-1.1225,2.7302,0.5054,-1.6502,0.2820,-0.0544,49.28012466,-122.98111428,0.00000000,
22.1600,0.0620,1.6957,-0.2036,-1.1225,2.7302,0.5054,-2.3218,-1.0034,-0.5157,49.28012466,-122.98111428,0.00000000,
22.1780,0.0620,1.6957,-0.2036,-1.6045,6.3141,-4.3996,-2.3218,-1.0034,-0.5157,49.28012466,-122.98111428,0.00000000,
22.1960,-0.1104,1.3467,0.0836,-1.6045,6.3141,-4.3996,-2.3218,-1.0034,-0.5157,49.28012466,-122.98111428,0.00000000,
22.2160,-0.1104,1.3467,0.0836,-1.6045,6.3141,-4.3996,-1.9013,-0.7521,-0.2954,49.28012466,-122.98111428,0.00000000,
22.2350,-0.1104,1.3467,0.0836,1.2133,6.9175,-1.2189,-1.9013,-0.7521,-0.2954,49.28012466,-122.98111428,0.00000000,
22.2740,0.1004,1.0358,-0.0768,1.2133,6.9175,-1.2189,-1.9013,-0.7521,-0.2954,49.28012466,-122.98111428,0.00000000,
22.2920,0.1004,1.0358,-0.0768,1.2133,6.9175,-1.2189,-1.1842,-1.9810,-0.3101,49.28012466,-122.98111428,0.00000000,
22.3100,0.1004,1.0358,-0.0768,-0.7101,0.9635,-3.6861,-1.1842,-1.9810,-0.3101,49.28012466,-122.98111428,0.00000000,
22.3300,0.2461,0.4389,0.1552,-0.7101,0.9635,-3.6861,-1.1842,-1.9810,-0.3101,49.28012466,-122.98111428,0.00000000,
22.3570,0.2461,0.4389,0.1552,-0.7101,0.9635,-3.6861,-0.0977,-0.5296,-0.4040,49.28012466,-122.98111428,0.00000000,
22.3710,0.2461,0.4389,0.1552,2.2167,-2.5693,-2.3448,-0.0977,-0.5296,-0.4040,49.28012466,-122.98111428,0.00000000,
22.4060,0.0490,0.3387,0.0662,2.2167,-2.5693,-2.3448,-0.0977,-0.5296,-0.4040,49.28011474,-122.98110874,0.00000000,
22.4250,0.0490,0.3387,0.0662,2.2167,-2.5693,-2.3448,0.7628,-0.0726,-0.4212,49.28011474,-122.98110874,0.00000000,
22.4440,0.0490,0.3387,0.0662,2.0061,-6.6471,-1.1542,0.7628,-0.0726,-0.4212,49.28011474,-122.98110874,0.00000000,
22.4630,-0.1331,0.8386,0.5490,2.0061,-6.6471,-1.1542,0.7628,-0.0726,-0.4212,49.28011474,-122.98110874,0.00000000,
22.4920,-0.1331,0.8386,0.5490,2.0061,-6.6471,-1.1542,0.3418,-0.9004,-0.1289,49.28011474,-122.98110874,0.00000000,
22.5110,-0.1331,0.8386,0.5490,-0.4916,-4.7103,0.0238,0.3418,-0.9004,-0.1289,49.28011474,-122.98110874,0.00000000,
22.5290,0.2993,1.1035,0.7093,-0.4916,-4.7103,0.0238,0.3418,-0.9004,-0.1289,49.28011474,-122.98110874,0.00000000,
22.5480,0.2993,1.1035,0.7093,-0.4916,-4.7103,0.0238,-0.5195,0.2860,-0.2094,49.28011474,-122.98110874,0.00000000,
22.5680,0.2993,1.1035,0.7093,0.4896,3.1865,5.9084,-0.5195,0.2860,-0.2094,49.28011474,-122.98110874,0.00000000,
22.6060,-0.0687,1.4587,0.1919,0.4896,3.1865,5.9084,-0.5195,0.2860,-0.2094,49.28011474,-122.98110874,0.00000000,
22.6250,-0.0687,1.4587,0.1919,0.4896,3.1865,5.9084,-0.5405,-0.0473,0.0184,49.28011474,-122.98110874,0.00000000,
22.6440,-0.0687,1.4587,0.1919,4.1603,-0.5312,0.2004,-0.5405,-0.0473,0.0184,49.28011474,-122.98110874,0.00000000,
22.6630,0.3187,0.8047,-0.1203,4.1603,-0.5312,0.2004,-0.5405,-0.0473,0.0184,49.28011474,-122.98110874,0.00000000,
22.6820,0.3187,0.8047,-0.1203,4.1603,-0.5312,0.2004,0.2995,0.9559,-0.0542,49.28011474,-122.98110874,0.00000000,
22.7020,0.3187,0.8047,-0.1203,-0.8707,5.0311,-4.2086,0.2995,0.9559,-0.0542,49.28011474,-122.98110874,0.00000000,
22.7390,-0.2632,1.4282,-0.1056,-0.8707,5.0311,-4.2086,0.2995,0.9559,-0.0542,49.28011474,-122.98110874,0.00000000,
22.7590,-0.2632,1.4282,-0.1056,-0.8707,5.0311,-4.2086,1.2460,1.0531,-0.0711,49.28011474,-122.98110874,0.00000000,
22.7760,-0.2632,1.4282,-0.1056,1.7651,-0.0824,-1.4640,1.2460,1.0531,-0.0711,49.28011474,-122.98110874,0.00000000,
22.7960,-0.1343,0.8739,0.1063,1.7651,-0.0824,-1.4640,1.2460,1.0531,-0.0711,49.28011474,-122.98110874,0.00000000,
22.8150,-0.1343,0.8739,0.1063,1.7651,-0.0824,-1.4640,1.7674,0.5852,-0.1561,49.28011474,-122.98110874,0.00000000,
22.8350,-0.1343,0.8739,0.1063,-0.2409,1.0865,0.1280,1.7674,0.5852,-0.1561,49.28011474,-122.98110874,0.00000000,
22.8730,-0.2057,0.8395,0.1055,-0.2409,1.0865,0.1280,1.7674,0.5852,-0.1561,49.28011474,-122.98110874,0.00000000,
22.8920,-0.2057,0.8395,0.1055,-0.2409,1.0865,0.1280,1.6103,0.5039,0.0359,49.28011474,-122.98110874,0.00000000,
22.9100,-0.2057,0.8395,0.1055,-1.7315,-1.2207,1.1886,1.6103,0.5039,0.0359,49.28011474,-122.98110874,0.00000000,
22.9300,-0.1011,0.8390,0.1853,-1.7315,-1.2207,1.1886,1.6103,0.5039,0.0359,49.28011474,-122.98110874,0.00000000,
22.9480,-0.1011,0.8390,0.1853,-1.7315,-1.2207,1.1886,1.2029,0.9208,0.1816,49.28011474,-122.98110874,0.00000000,
22.9690,-0.1011,0.8390,0.1853,-0.5064,-1.6884,2.7415,1.2029,0.9208,0.1816,49.28011474,-122.98110874,0.00000000,
23.0060,-0.1169,0.8354,0.1315,-0.5064,-1.6884,2.7415,1.2029,0.9208,0.1816,49.28011474,-122.98110874,0.00000000,
23.0240,-0.1169,0.8354,0.1315,-0.5064,-1.6884,2.7415,0.5448,1.1124,0.3685,49.28011474,-122.98110874,0.00000000,
23.0440,-0.1169,0.8354,0.1315,-0.6675,-1.3521,3.4246,0.5448,1.1124,0.3685,49.28011474,-122.98110874,0.00000000,
23.0630,-0.2073,0.8175,0.0642,-0.6675,-1.3521,3.4246,0.5448,1.1124,0.3685,49.28011474,-122.98110874,0.00000000,
23.0820,-0.2073,0.8175,0.0642,-0.6675,-1.3521,3.4246,0.1474,0.6103,0.4139,49.28011474,-122.98110874,0.00000000,
23.1010,-0.2073,0.8175,0.0642,-1.9400,-1.7301,2.1423,0.1474,0.6103,0.4139,49.28011474,-122.98110874,0.00000000,
23.1390,-0.3189,1.3024,0.0204,-1.9400,-1.7301,2.1423,0.1474,0.6103,0.4139,49.28011474,-122.98110874,0.00000000,
23.1580,-0.3189,1.3024,0.0204,-1.9400,-1.7301,2.1423,-0.4651,0.3738,0.1685,49.28011474,-122.98110874,0.00000000,
23.1760,-0.3189,1.3024,0.0204,-2.4870,-0.5902,2.3597,-0.4651,0.3738,0.1685,49.28011474,-122.98110874,0.00000000,
23.1950,-0.1527,1.4916,-0.0152,-2.4870,-0.5902,2.3597,-0.4651,0.3738,0.1685,49.28011474,-122.98110874,0.00000000,
23.2150,-0.1527,1.4916,-0.0152,-2.4870,-0.5902,2.3597,-2.0521,-0.7495,-0.2781,49.28011474,-122.98110874,0.00000000,
23.2340,-0.1527,1.4916,-0.0152,-2.6452,5.9787,-1.1532,-2.0521,-0.7495,-0.2781,49.28011474,-122.98110874,0.00000000,
23.2730,-0.0323,1.7071,-0.0469,-2.6452,5.9787,-1.1532,-2.0521,-0.7495,-0.2781,49.28011474,-122.98110874,0.00000000,
23.2900,-0.0323,1.7071,-0.0469,-2.6452,5.9787,-1.1532,-2.1919,-0.8582,-0.2949,49.28011474,-122.98110874,0.00000000,
23.3100,-0.0323,1.7071,-0.0469,1.2113,6.0826,-3.0478,-2.1919,-0.8582,-0.2949,49.28011474,-122.98110874,0.00000000,
23.3290,-0.0459,1.1928,0.0084,1.2113,6.0826,-3.0478,-2.1919,-0.8582,-0.2949,49.28011474,-122.98110874,0.00000000,
23.3480,-0.0459,1.1928,0.0084,1.2113,6.0826,-3.0478,-1.7179,-1.6120,-0.0168,49.28011474,-122.98110874,0.00000000,
23.3660,-0.0459,1.1928,0.0084,-1.6417,3.9691,-2.3788,-1.7179,-1.6120,-0.0168,49.28011474,-122.98110874,0.00000000,
23.4050,0.2458,0.7095,0.0506,-1.6417,3.9691,-2.3788,-1.7179,-1.6120,-0.0168,49.28011474,-122.98110874,0.00000000,
23.4250,0.2458,0.7095,0.0506,-1.6417,3.9691,-2.3788,-0.8187,-1.1439,-0.1429,49.28011474,-122.98110874,0.00000000,
23.4440,0.2458,0.7095,0.0506,1.9561,-0.3148,-2.7499,-0.8187,-1.1439,-0.1429,49.28011474,-122.98110874,0.00000000,
23.4630,0.2041,0.2879,0.0862,1.9561,-0.3148,-2.7499,-0.8187,-1.1439,-0.1429,49.28011474,-122.98110874,0.00000000,
23.4820,0.2041,0.2879,0.0862,1.9561,-0.3148,-2.7499,0.3861,0.1977,-0.3451,49.28011474,-122.98110874,0.00000000,
23.5000,0.2041,0.2879,0.0862,2.3537,-5.3614,-1.7273,0.3861,0.1977,-0.3451,49.28011474,-122.98110874,0.00000000,
23.5380,-0.1242,0.3606,0.2389,2.3537,-5.3614,-1.7273,0.3861,0.1977,-0.3451,49.28011474,-122.98110874,0.00000000,
23.5570,-0.1242,0.3606,0.2389,2.3537,-5.3614,-1.7273,1.0521,-0.3496,-0.1999,49.28011474,-122.98110874,0.00000000,
23.5760,-0.1242,0.3606,0.2389,1.4076,-7.5698,-1.4288,1.0521,-0.3496,-0.1999,49.28011474,-122.98110874,0.00000000,
23.5950,-0.0602,1.4025,0.8669,1.4076,-7.5698,-1.4288,1.0521,-0.3496,-0.1999,49.28011474,-122.98110874,0.00000000,
23.6140,-0.0602,1.4025,0.8669,1.4076,-7.5698,-1.4288,-0.3275,-0.9565,-0.0102,49.28011474,-122.98110874,0.00000000,
23.6350,-0.0602,1.4025,0.8669,-3.2844,1.6168,4.3974,-0.3275,-0.9565,-0.0102,49.28011474,-122.98110874,0.00000000,
23.6730,0.2966,0.9233,0.3554,-3.2844,1.6168,4.3974,-0.3275,-0.9565,-0.0102,49.28011474,-122.98110874,0.00000000,
23.6910,0.2966,0.9233,0.3554,-3.2844,1.6168,4.3974,-0.6326,0.3934,-0.1121,49.28011474,-122.98110874,0.00000000,
23.7100,0.2966,0.9233,0.3554,5.4836,-1.4300,2.0478,-0.6326,0.3934,-0.1121,49.28011474,-122.98110874,0.00000000,
23.7280,0.0334,1.2760,-0.3599,5.4836,-1.4300,2.0478,-0.6326,0.3934,-0.1121,49.28011474,-122.98110874,0.00000000,
23.7460,0.0334,1.2760,-0.3599,5.4836,-1.4300,2.0478,-0.3338,0.6339,0.0439,49.28011474,-122.98110874,0.00000000,
23.7660,0.0334,1.2760,-0.3599,-2.2151,8.4376,-2.9643,-0.3338,0.6339,0.0439,49.28011474,-122.98110874,0.00000000,
