
time,gFx,gFy,gFz,ax,ay,az,wx,wy,wz,p,Bx,By,Bz,Azimuth,Pitch,Roll,Latitude,Longitude,Speed (m/s),
0.0110,0.2785,0.5477,0.7578,-0.2211,0.2475,-0.4003,0.0874,-0.0629,-0.0352,848.8230,21.1800,-29.3400,-31.9800,-110.457,-34.152,-20.180,49.17437819,-121.67816955,0.00000000,
0.0380,0.2712,0.5169,0.7035,-0.2211,0.2475,-0.4003,0.0874,-0.0629,-0.0352,848.8230,21.1800,-29.3400,-31.9800,-110.411,-34.432,-21.079,49.17437819,-121.67816955,0.00000000,
0.0410,0.2712,0.5169,0.7035,-0.2211,0.2475,-0.4003,0.0874,-0.0629,-0.0352,848.8230,21.2400,-29.2800,-31.9800,-110.318,-34.432,-21.079,49.17437819,-121.67816955,0.00000000,
0.0420,0.2712,0.5169,0.7035,-0.2211,0.2475,-0.4003,-0.3132,0.1470,0.1161,848.8230,21.2400,-29.2800,-31.9800,-110.318,-34.432,-21.079,49.17437819,-121.67816955,0.00000000,
0.0620,0.2712,0.5169,0.7035,-0.2019,-0.0618,-0.9605,-0.3132,0.1470,0.1161,848.8230,21.2400,-29.2800,-31.9800,-110.318,-34.432,-21.079,49.17437819,-121.67816955,0.00000000,
0.0760,0.2712,0.5169,0.7035,-0.2019,-0.0618,-0.9605,-0.3132,0.1470,0.1161,848.7498,21.2400,-29.2800,-31.9800,-110.318,-34.432,-21.079,49.17437819,-121.67816955,0.00000000,
0.0770,0.2712,0.5169,0.7035,-0.2019,-0.0618,-0.9605,-0.3132,0.1470,0.1161,848.7498,21.2400,-29.2800,-31.9800,-110.318,-34.432,-21.079,49.17437819,-121.67816955,0.00000000,
0.0980,0.2585,0.4842,0.7280,-0.2019,-0.0618,-0.9605,-0.3132,0.1470,0.1161,848.7498,21.2400,-29.2800,-31.9800,-112.272,-32.077,-19.548,49.17437819,-121.67816955,0.00000000,
0.1000,0.2585,0.4842,0.7280,-0.2019,-0.0618,-0.9605,-0.3132,0.1470,0.1161,848.7498,21.3000,-29.2800,-32.0400,-112.191,-32.077,-19.548,49.17437819,-121.67816955,0.00000000,
0.1030,0.2585,0.4842,0.7280,-0.2019,-0.0618,-0.9605,-0.1470,0.4016,0.1992,848.7498,21.3000,-29.2800,-32.0400,-112.191,-32.077,-19.548,49.17437819,-121.67816955,0.00000000,
0.1170,0.2585,0.4842,0.7280,-0.2685,-0.2590,-0.8210,-0.1470,0.4016,0.1992,848.7498,21.3000,-29.2800,-32.0400,-112.191,-32.077,-19.548,49.17437819,-121.67816955,0.00000000,
0.1580,0.2819,0.4627,0.6493,-0.2685,-0.2590,-0.8210,-0.1470,0.4016,0.1992,848.7498,21.3000,-29.2800,-32.0400,-112.034,-33.168,-23.471,49.17437819,-121.67816955,0.00000000,
0.1600,0.2819,0.4627,0.6493,-0.2685,-0.2590,-0.8210,-0.1470,0.4016,0.1992,848.7498,21.3600,-29.2800,-31.9800,-112.081,-33.168,-23.471,49.17437819,-121.67816955,0.00000000,
0.1620,0.2819,0.4627,0.6493,-0.2685,-0.2590,-0.8210,-0.4964,0.4953,0.2844,848.7498,21.3600,-29.2800,-31.9800,-112.081,-33.168,-23.471,49.17437819,-121.67816955,0.00000000,
0.1830,0.2819,0.4627,0.6493,0.1175,-0.3559,-1.7152,-0.4964,0.4953,0.2844,848.7498,21.3600,-29.2800,-31.9800,-112.081,-33.168,-23.471,49.17437819,-121.67816955,0.00000000,
0.2190,0.2682,0.4617,0.8237,0.1175,-0.3559,-1.7152,-0.4964,0.4953,0.2844,848.7498,21.3600,-29.2800,-31.9800,-115.867,-28.054,-18.038,49.17437819,-121.67816955,0.00000000,
0.2200,0.2682,0.4617,0.8237,0.1175,-0.3559,-1.7152,-0.4964,0.4953,0.2844,848.7498,21.4200,-29.2800,-31.9800,-115.838,-28.054,-18.038,49.17437819,-121.67816955,0.00000000,
0.2210,0.2682,0.4617,0.8237,0.1175,-0.3559,-1.7152,-0.7744,0.5795,0.3835,848.7498,21.4200,-29.2800,-31.9800,-115.838,-28.054,-18.038,49.17437819,-121.67816955,0.00000000,
0.2380,0.2682,0.4617,0.8237,0.1044,0.0663,-0.2893,-0.7744,0.5795,0.3835,848.7498,21.4200,-29.2800,-31.9800,-115.838,-28.054,-18.038,49.17437819,-121.67816955,0.00000000,
0.2560,0.2682,0.4617,0.8237,0.1044,0.0663,-0.2893,-0.7744,0.5795,0.3835,848.6919,21.4200,-29.2800,-31.9800,-115.838,-28.054,-18.038,49.17437819,-121.67816955,0.00000000,
0.2590,0.2682,0.4617,0.8237,0.1044,0.0663,-0.2893,-0.7744,0.5795,0.3835,848.6919,21.4200,-29.2800,-31.9800,-115.838,-28.054,-18.038,49.17437819,-121.67816955,0.00000000,
0.2780,0.2081,0.4641,0.9356,0.1044,0.0663,-0.2893,-0.7744,0.5795,0.3835,848.6919,21.4200,-29.2800,-31.9800,-117.945,-25.837,-12.542,49.17437819,-121.67816955,0.00000000,
0.2820,0.2081,0.4641,0.9356,0.1044,0.0663,-0.2893,-0.7744,0.5795,0.3835,848.6919,21.4800,-29.2800,-31.9800,-117.904,-25.837,-12.542,49.17437819,-121.67816955,0.00000000,
0.2840,0.2081,0.4641,0.9356,0.1044,0.0663,-0.2893,-0.8171,0.4890,0.3473,848.6919,21.4800,-29.2800,-31.9800,-117.904,-25.837,-12.542,49.17437819,-121.67816955,0.00000000,
0.2990,0.2081,0.4641,0.9356,-0.3325,0.5115,0.5526,-0.8171,0.4890,0.3473,848.6919,21.4800,-29.2800,-31.9800,-117.904,-25.837,-12.542,49.17437819,-121.67816955,0.00000000,
0.3370,0.2301,0.3708,0.9234,-0.3325,0.5115,0.5526,-0.8171,0.4890,0.3473,848.6919,21.4800,-29.2800,-31.9800,-122.067,-21.287,-13.994,49.17437819,-121.67816955,0.00000000,
0.3390,0.2301,0.3708,0.9234,-0.3325,0.5115,0.5526,-0.8171,0.4890,0.3473,848.6919,21.5400,-29.2800,-31.9800,-122.022,-21.287,-13.994,49.17437819,-121.67816955,0.00000000,
0.3400,0.2301,0.3708,0.9234,-0.3325,0.5115,0.5526,-0.3696,0.4186,0.5593,848.6919,21.5400,-29.2800,-31.9800,-122.022,-21.287,-13.994,49.17437819,-121.67816955,0.00000000,
0.3570,0.2301,0.3708,0.9234,0.0175,-0.0410,0.2371,-0.3696,0.4186,0.5593,848.6919,21.5400,-29.2800,-31.9800,-122.022,-21.287,-13.994,49.17437819,-121.67816955,0.00000000,
0.3990,0.1793,0.3283,0.8467,0.0175,-0.0410,0.2371,-0.3696,0.4186,0.5593,848.6919,21.5400,-29.2800,-31.9800,-122.819,-20.772,-11.958,49.17437819,-121.67816955,0.00000000,
0.4010,0.1793,0.3283,0.8467,0.0175,-0.0410,0.2371,-0.3696,0.4186,0.5593,848.6919,21.7200,-29.2200,-31.9800,-122.592,-20.772,-11.958,49.17437819,-121.67816955,0.00000000,
0.4030,0.1793,0.3283,0.8467,0.0175,-0.0410,0.2371,-0.0692,0.6977,0.3728,848.6919,21.7200,-29.2200,-31.9800,-122.592,-20.772,-11.958,49.17437819,-121.67816955,0.00000000,
0.4170,0.1793,0.3283,0.8467,-0.3386,-0.4374,-0.5579,-0.0692,0.6977,0.3728,848.6919,21.7200,-29.2200,-31.9800,-122.592,-20.772,-11.958,49.17437819,-121.67816955,0.00000000,
0.4360,0.1793,0.3283,0.8467,-0.3386,-0.4374,-0.5579,-0.0692,0.6977,0.3728,848.7651,21.7200,-29.2200,-31.9800,-122.592,-20.772,-11.958,49.17437819,-121.67816955,0.00000000,
0.4380,0.1793,0.3283,0.8467,-0.3386,-0.4374,-0.5579,-0.0692,0.6977,0.3728,848.7651,21.7200,-29.2200,-31.9800,-122.592,-20.772,-11.958,49.17437819,-121.67816955,0.00000000,
0.4570,0.0591,0.3117,0.8306,-0.3386,-0.4374,-0.5579,-0.0692,0.6977,0.3728,848.7651,21.7200,-29.2200,-31.9800,-124.942,-20.521,-4.072,49.17437819,-121.67816955,0.00000000,
0.4590,0.0591,0.3117,0.8306,-0.3386,-0.4374,-0.5579,-0.0692,0.6977,0.3728,848.7651,21.9000,-29.0400,-32.0400,-124.439,-20.521,-4.072,49.17437819,-121.67816955,0.00000000,
0.4620,0.0591,0.3117,0.8306,-0.3386,-0.4374,-0.5579,-0.0597,0.8543,0.6860,848.7651,21.9000,-29.0400,-32.0400,-124.439,-20.521,-4.072,49.17437819,-121.67816955,0.00000000,
0.4800,0.0591,0.3117,0.8306,-1.1901,-0.4764,-0.8366,-0.0597,0.8543,0.6860,848.7651,21.9000,-29.0400,-32.0400,-124.439,-20.521,-4.072,49.17437819,-121.67816955,0.00000000,
0.5210,0.0733,0.2736,0.8926,-1.1901,-0.4764,-0.8366,-0.0597,0.8543,0.6860,848.7651,21.9000,-29.0400,-32.0400,-127.807,-16.985,-4.694,49.17437819,-121.67816955,0.00000000,
0.5250,0.0733,0.2736,0.8926,-1.1901,-0.4764,-0.8366,-0.0597,0.8543,0.6860,848.7651,22.2000,-28.8600,-32.1000,-127.198,-16.985,-4.694,49.17437819,-121.67816955,0.00000000,
0.5350,0.0733,0.2736,0.8926,-1.1901,-0.4764,-0.8366,-0.3430,1.1803,0.8597,848.7651,22.2000,-28.8600,-32.1000,-127.198,-16.985,-4.694,49.17437819,-121.67816955,0.00000000,
0.5380,0.0733,0.2736,0.8926,-0.5468,-0.5565,-0.4222,-0.3430,1.1803,0.8597,848.7651,22.2000,-28.8600,-32.1000,-127.198,-16.985,-4.694,49.17437819,-121.67816955,0.00000000,
0.5800,0.0347,0.2726,0.9127,-0.5468,-0.5565,-0.4222,-0.3430,1.1803,0.8597,848.7651,22.2000,-28.8600,-32.1000,-128.659,-16.618,-2.177,49.17437819,-121.67816955,0.00000000,
0.5900,0.0347,0.2726,0.9127,-0.5468,-0.5565,-0.4222,-0.3430,1.1803,0.8597,848.7651,22.6800,-28.5600,-32.1600,-127.643,-16.618,-2.177,49.17437819,-121.67816955,0.00000000,
0.6020,0.0347,0.2726,0.9127,-0.5468,-0.5565,-0.4222,0.1172,1.5404,1.0045,848.7651,22.6800,-28.5600,-32.1600,-127.643,-16.618,-2.177,49.17437819,-121.67816955,0.00000000,
0.6060,0.0347,0.2726,0.9127,-0.4328,-0.4449,-0.3220,0.1172,1.5404,1.0045,848.7651,22.6800,-28.5600,-32.1600,-127.643,-16.618,-2.177,49.17437819,-121.67816955,0.00000000,
0.6160,0.0347,0.2726,0.9127,-0.4328,-0.4449,-0.3220,0.1172,1.5404,1.0045,848.7834,22.6800,-28.5600,-32.1600,-127.643,-16.618,-2.177,49.17437819,-121.67816955,0.00000000,
0.6180,0.0347,0.2726,0.9127,-0.4328,-0.4449,-0.3220,0.1172,1.5404,1.0045,848.7834,22.6800,-28.5600,-32.1600,-127.643,-16.618,-2.177,49.17437819,-121.67816955,0.00000000,
0.6360,-0.1588,0.2477,0.8868,-0.4328,-0.4449,-0.3220,0.1172,1.5404,1.0045,848.7834,22.6800,-28.5600,-32.1600,-137.359,-15.372,10.153,49.17437819,-121.67816955,0.00000000,
0.6380,-0.1588,0.2477,0.8868,-0.4328,-0.4449,-0.3220,0.1172,1.5404,1.0045,848.7834,23.2800,-28.2600,-32.2200,-135.848,-15.372,10.153,49.17437819,-121.67816955,0.00000000,
0.6410,-0.1588,0.2477,0.8868,-0.4328,-0.4449,-0.3220,-0.3313,2.2541,1.0301,848.7834,23.2800,-28.2600,-32.2200,-135.848,-15.372,10.153,49.17437819,-121.67816955,0.00000000,
0.6570,-0.1588,0.2477,0.8868,-1.2972,-0.6006,-0.6336,-0.3313,2.2541,1.0301,848.7834,23.2800,-28.2600,-32.2200,-135.848,-15.372,10.153,49.17437819,-121.67816955,0.00000000,
0.6950,-0.2853,0.2560,1.1477,-1.2972,-0.6006,-0.6336,-0.3313,2.2541,1.0301,848.7834,23.2800,-28.2600,-32.2200,-143.214,-12.213,13.962,49.17437819,-121.67816955,0.00000000,
0.6970,-0.2853,0.2560,1.1477,-1.2972,-0.6006,-0.6336,-0.3313,2.2541,1.0301,848.7834,24.0600,-27.9000,-32.2800,-141.287,-12.213,13.962,49.17437819,-121.67816955,0.00000000,
0.6990,-0.2853,0.2560,1.1477,-1.2972,-0.6006,-0.6336,-0.6264,2.0123,1.4307,848.7834,24.0600,-27.9000,-32.2800,-141.287,-12.213,13.962,49.17437819,-121.67816955,0.00000000,
0.7150,-0.2853,0.2560,1.1477,-1.5971,-0.1716,1.8906,-0.6264,2.0123,1.4307,848.7834,24.0600,-27.9000,-32.2800,-141.287,-12.213,13.962,49.17437819,-121.67816955,0.00000000,
0.7600,-0.0777,0.2135,1.0500,-1.5971,-0.1716,1.8906,-0.6264,2.0123,1.4307,848.7834,24.0600,-27.9000,-32.2800,-133.618,-11.461,4.232,49.17437819,-121.67816955,0.00000000,
0.7630,-0.0777,0.2135,1.0500,-1.5971,-0.1716,1.8906,-0.6264,2.0123,1.4307,848.7834,25.1400,-27.5400,-32.2200,-131.725,-11.461,4.232,49.17437819,-121.67816955,0.00000000,
0.7660,-0.0777,0.2135,1.0500,-1.5971,-0.1716,1.8906,1.1633,2.5779,0.9822,848.7834,25.1400,-27.5400,-32.2200,-131.725,-11.461,4.232,49.17437819,-121.67816955,0.00000000,
0.7780,-0.0777,0.2135,1.0500,1.2805,-0.8695,1.1666,1.1633,2.5779,0.9822,848.7834,25.1400,-27.5400,-32.2200,-131.725,-11.461,4.232,49.17437819,-121.67816955,0.00000000,
0.7970,-0.0777,0.2135,1.0500,1.2805,-0.8695,1.1666,1.1633,2.5779,0.9822,848.6931,25.1400,-27.5400,-32.2200,-131.725,-11.461,4.232,49.17437819,-121.67816955,0.00000000,
0.7990,-0.0777,0.2135,1.0500,1.2805,-0.8695,1.1666,1.1633,2.5779,0.9822,848.6931,25.1400,-27.5400,-32.2200,-131.725,-11.461,4.232,49.17437819,-121.67816955,0.00000000,
0.8160,-0.2985,0.4729,0.8980,1.2805,-0.8695,1.1666,1.1633,2.5779,0.9822,848.6931,25.1400,-27.5400,-32.2200,-118.462,-26.553,18.389,49.17437819,-121.67816955,0.00000000,
0.8180,-0.2985,0.4729,0.8980,1.2805,-0.8695,1.1666,1.1633,2.5779,0.9822,848.6931,26.4000,-27.3000,-32.0400,-115.432,-26.553,18.389,49.17437819,-121.67816955,0.00000000,
0.8200,-0.2985,0.4729,0.8980,1.2805,-0.8695,1.1666,0.0032,1.0823,0.5284,848.6931,26.4000,-27.3000,-32.0400,-115.432,-26.553,18.389,49.17437819,-121.67816955,0.00000000,
0.8360,-0.2985,0.4729,0.8980,-0.2357,0.8778,0.1506,0.0032,1.0823,0.5284,848.6931,26.4000,-27.3000,-32.0400,-115.432,-26.553,18.389,49.17437819,-121.67816955,0.00000000,
0.8820,-0.6225,-0.0162,1.6075,-0.2357,0.8778,0.1506,0.0032,1.0823,0.5284,848.6931,26.4000,-27.3000,-32.0400,-154.752,0.538,21.169,49.17437819,-121.67816955,0.00000000,
0.8880,-0.6225,-0.0162,1.6075,-0.2357,0.8778,0.1506,0.0032,1.0823,0.5284,848.6931,27.8400,-27.0600,-31.7400,-152.140,0.538,21.169,49.17437819,-121.67816955,0.00000000,
0.9000,-0.6225,-0.0162,1.6075,-0.2357,0.8778,0.1506,-2.0208,1.2879,0.0266,848.6931,27.8400,-27.0600,-31.7400,-152.140,0.538,21.169,49.17437819,-121.67816955,0.00000000,
0.9020,-0.6225,-0.0162,1.6075,-2.5481,-2.4178,6.8962,-2.0208,1.2879,0.0266,848.6931,27.8400,-27.0600,-31.7400,-152.140,0.538,21.169,49.17437819,-121.67816955,0.00000000,
0.9360,-0.3801,0.4529,0.7588,-2.5481,-2.4178,6.8962,-2.0208,1.2879,0.0266,848.6931,27.8400,-27.0600,-31.7400,-113.504,-28.087,26.611,49.17437819,-121.67816955,0.00000000,
0.9380,-0.3801,0.4529,0.7588,-2.5481,-2.4178,6.8962,-2.0208,1.2879,0.0266,848.6931,29.4600,-26.8200,-31.4400,-108.978,-28.087,26.611,49.17437819,-121.67816955,0.00000000,
0.9400,-0.3801,0.4529,0.7588,-2.5481,-2.4178,6.8962,1.2687,0.1609,0.8320,848.6931,29.4600,-26.8200,-31.4400,-108.978,-28.087,26.611,49.17437819,-121.67816955,0.00000000,
0.9560,-0.3801,0.4529,0.7588,0.0998,1.3961,-1.0662,1.2687,0.1609,0.8320,848.6931,29.4600,-26.8200,-31.4400,-108.978,-28.087,26.611,49.17437819,-121.67816955,0.00000000,
0.9750,-0.3801,0.4529,0.7588,0.0998,1.3961,-1.0662,1.2687,0.1609,0.8320,848.8823,29.4600,-26.8200,-31.4400,-108.978,-28.087,26.611,49.17437819,-121.67816955,0.00000000,
0.9890,-0.3801,0.4529,0.7588,0.0998,1.3961,-1.0662,1.2687,0.1609,0.8320,848.8823,29.4600,-26.8200,-31.4400,-108.978,-28.087,26.611,49.17437819,-121.67816955,0.00000000,
0.9950,-0.3640,0.4553,0.9439,0.0998,1.3961,-1.0662,1.2687,0.1609,0.8320,848.8823,29.4600,-26.8200,-31.4400,-116.509,-24.231,21.088,49.17437819,-121.67816955,0.00000000,
0.9980,-0.3640,0.4553,0.9439,0.0998,1.3961,-1.0662,1.2687,0.1609,0.8320,848.8823,31.2000,-26.6400,-30.9600,-113.544,-24.231,21.088,49.17437819,-121.67816955,0.00000000,
1.0000,-0.3640,0.4553,0.9439,0.0998,1.3961,-1.0662,1.1718,-0.5635,1.3209,848.8823,31.2000,-26.6400,-30.9600,-113.544,-24.231,21.088,49.17437819,-121.67816955,0.00000000,
1.0170,-0.3640,0.4553,0.9439,-0.0979,0.7116,0.8800,1.1718,-0.5635,1.3209,848.8823,31.2000,-26.6400,-30.9600,-113.544,-24.231,21.088,49.17428527,-121.67773193,0.00000000,
1.0560,-0.2834,0.3938,0.7930,-0.0979,0.7116,0.8800,1.1718,-0.5635,1.3209,848.8823,31.2000,-26.6400,-30.9600,-111.149,-25.061,19.666,49.17428527,-121.67773193,0.00000000,
1.0580,-0.2834,0.3938,0.7930,-0.0979,0.7116,0.8800,1.1718,-0.5635,1.3209,848.8823,32.8800,-26.5200,-30.3000,-109.247,-25.061,19.666,49.17428527,-121.67773193,0.00000000,
1.0590,-0.2834,0.3938,0.7930,-0.0979,0.7116,0.8800,-1.2826,0.5774,-0.0458,848.8823,32.8800,-26.5200,-30.3000,-109.247,-25.061,19.666,49.17428527,-121.67773193,0.00000000,
1.0750,-0.2834,0.3938,0.7930,0.7177,-0.2571,-0.4153,-1.2826,0.5774,-0.0458,848.8823,32.8800,-26.5200,-30.3000,-109.247,-25.061,19.666,49.17428527,-121.67773193,0.00000000,
1.1190,-0.2394,0.0938,0.8643,0.7177,-0.2571,-0.4153,-1.2826,0.5774,-0.0458,848.8823,32.8800,-26.5200,-30.3000,-133.544,-5.968,15.483,49.17428527,-121.67773193,0.00000000,
1.1220,-0.2394,0.0938,0.8643,0.7177,-0.2571,-0.4153,-1.2826,0.5774,-0.0458,848.8823,34.5600,-26.5200,-29.5200,-131.456,-5.968,15.483,49.17428527,-121.67773193,0.00000000,
1.1250,-0.2394,0.0938,0.8643,0.7177,-0.2571,-0.4153,-2.5992,0.8171,-1.0930,848.8823,34.5600,-26.5200,-29.5200,-131.456,-5.968,15.483,49.17428527,-121.67773193,0.00000000,
1.1380,-0.2394,0.0938,0.8643,1.6617,-1.9293,-0.0149,-2.5992,0.8171,-1.0930,848.8823,34.5600,-26.5200,-29.5200,-131.456,-5.968,15.483,49.17428527,-121.67773193,0.00000000,
1.1550,-0.2394,0.0938,0.8643,1.6617,-1.9293,-0.0149,-2.5992,0.8171,-1.0930,848.9121,34.5600,-26.5200,-29.5200,-131.456,-5.968,15.483,49.17428527,-121.67773193,0.00000000,
1.1560,-0.2394,0.0938,0.8643,1.6617,-1.9293,-0.0149,-2.5992,0.8171,-1.0930,848.9121,34.5600,-26.5200,-29.5200,-131.456,-5.968,15.483,49.17428527,-121.67773193,0.00000000,
1.1760,-0.5297,0.0175,1.0417,1.6617,-1.9293,-0.0149,-2.5992,0.8171,-1.0930,848.9121,34.5600,-26.5200,-29.5200,-146.053,-0.859,26.952,49.17428527,-121.67773193,0.00000000,
1.1810,-0.5297,0.0175,1.0417,1.6617,-1.9293,-0.0149,-2.5992,0.8171,-1.0930,848.9121,36.2400,-26.4600,-28.7400,-143.261,-0.859,26.952,49.17428527,-121.67773193,0.00000000,
1.1880,-0.5297,0.0175,1.0417,1.6617,-1.9293,-0.0149,-2.3063,0.1172,-0.7734,848.9121,36.2400,-26.4600,-28.7400,-143.261,-0.859,26.952,49.17428527,-121.67773193,0.00000000,
1.2010,-0.5297,0.0175,1.0417,-0.7578,-1.1087,1.5549,-2.3063,0.1172,-0.7734,848.9121,36.2400,-26.4600,-28.7400,-143.261,-0.859,26.952,49.17428527,-121.67773193,0.00000000,
1.2350,-0.5722,-0.0709,0.9078,-0.7578,-1.1087,1.5549,-2.3063,0.1172,-0.7734,848.9121,36.2400,-26.4600,-28.7400,-152.359,3.781,32.223,49.17428527,-121.67773193,0.00000000,
1.2370,-0.5722,-0.0709,0.9078,-0.7578,-1.1087,1.5549,-2.3063,0.1172,-0.7734,848.9121,37.9800,-26.2800,-28.0800,-149.497,3.781,32.223,49.17428527,-121.67773193,0.00000000,
1.2390,-0.5722,-0.0709,0.9078,-0.7578,-1.1087,1.5549,-2.0272,-1.0514,-0.4740,848.9121,37.9800,-26.2800,-28.0800,-149.497,3.781,32.223,49.17428527,-121.67773193,0.00000000,
1.2550,-0.5722,-0.0709,0.9078,-1.4652,-0.8688,0.0090,-2.0272,-1.0514,-0.4740,848.9121,37.9800,-26.2800,-28.0800,-149.497,3.781,32.223,49.17428527,-121.67773193,0.00000000,
1.2950,-0.2511,-0.1164,0.9449,-1.4652,-0.8688,0.0090,-2.0272,-1.0514,-0.4740,848.9121,37.9800,-26.2800,-28.0800,-135.920,6.786,14.884,49.17428527,-121.67773193,0.00000000,
1.2970,-0.2511,-0.1164,0.9449,-1.4652,-0.8688,0.0090,-2.0272,-1.0514,-0.4740,848.9121,39.9000,-25.2600,-27.6000,-133.096,6.786,14.884,49.17428527,-121.67773193,0.00000000,
1.2990,-0.2511,-0.1164,0.9449,-1.4652,-0.8688,0.0090,-1.4434,-0.5923,-0.4325,848.9121,39.9000,-25.2600,-27.6000,-133.096,6.786,14.884,49.17428527,-121.67773193,0.00000000,
1.3160,-0.2511,-0.1164,0.9449,1.3019,-0.1988,0.2534,-1.4434,-0.5923,-0.4325,848.9121,39.9000,-25.2600,-27.6000,-133.096,6.786,14.884,49.17428527,-121.67773193,0.00000000,
1.3360,-0.2511,-0.1164,0.9449,1.3019,-0.1988,0.2534,-1.4434,-0.5923,-0.4325,848.8323,39.9000,-25.2600,-27.6000,-133.096,6.786,14.884,49.17428527,-121.67773193,0.00000000,
1.3380,-0.2511,-0.1164,0.9449,1.3019,-0.1988,0.2534,-1.4434,-0.5923,-0.4325,848.8323,39.9000,-25.2600,-27.6000,-133.096,6.786,14.884,49.17428527,-121.67773193,0.00000000,
1.3550,-0.3665,-0.2585,0.6723,1.3019,-0.1988,0.2534,-1.4434,-0.5923,-0.4325,848.8323,39.9000,-25.2600,-27.6000,-149.997,18.658,28.595,49.17428527,-121.67773193,0.00000000,
1.3580,-0.3665,-0.2585,0.6723,1.3019,-0.1988,0.2534,-1.4434,-0.5923,-0.4325,848.8323,41.6400,-24.0600,-27.3000,-147.472,18.658,28.595,49.17428527,-121.67773193,0.00000000,
1.3610,-0.3665,-0.2585,0.6723,1.3019,-0.1988,0.2534,-1.0653,-0.1715,-0.8245,848.8323,41.6400,-24.0600,-27.3000,-147.472,18.658,28.595,49.17428527,-121.67773193,0.00000000,
1.3780,-0.3665,-0.2585,0.6723,0.0257,-0.7679,-2.3543,-1.0653,-0.1715,-0.8245,848.8323,41.6400,-24.0600,-27.3000,-147.472,18.658,28.595,49.17428527,-121.67773193,0.00000000,
1.4180,-0.2756,-0.2361,0.9806,0.0257,-0.7679,-2.3543,-1.0653,-0.1715,-0.8245,848.8323,41.6400,-24.0600,-27.3000,-134.304,13.048,15.697,49.17428527,-121.67773193,0.00000000,
1.4270,-0.2756,-0.2361,0.9806,0.0257,-0.7679,-2.3543,-1.0653,-0.1715,-0.8245,848.8323,43.3200,-22.9200,-26.9400,-131.854,13.048,15.697,49.17428527,-121.67773193,0.00000000,
1.4340,-0.2756,-0.2361,0.9806,0.0257,-0.7679,-2.3543,-0.4549,-0.2386,-0.3910,848.8323,43.3200,-22.9200,-26.9400,-131.854,13.048,15.697,49.17428527,-121.67773193,0.00000000,
1.4390,-0.2756,-0.2361,0.9806,0.6228,0.2232,0.7390,-0.4549,-0.2386,-0.3910,848.8323,43.3200,-22.9200,-26.9400,-131.854,13.048,15.697,49.17428527,-121.67773193,0.00000000,
1.4760,-0.5062,-0.0592,0.7539,0.6228,0.2232,0.7390,-0.4549,-0.2386,-0.3910,848.8323,43.3200,-22.9200,-26.9400,-141.032,3.729,33.880,49.17428527,-121.67773193,0.00000000,
1.4790,-0.5062,-0.0592,0.7539,0.6228,0.2232,0.7390,-0.4549,-0.2386,-0.3910,848.8323,44.8200,-21.6000,-26.7000,-137.799,3.729,33.880,49.17428527,-121.67773193,0.00000000,
1.4810,-0.5062,-0.0592,0.7539,0.6228,0.2232,0.7390,0.0511,1.0791,-1.1814,848.8323,44.8200,-21.6000,-26.7000,-137.799,3.729,33.880,49.17428527,-121.67773193,0.00000000,
1.4950,-0.5062,-0.0592,0.7539,-1.1821,2.0104,-1.2828,0.0511,1.0791,-1.1814,848.8323,44.8200,-21.6000,-26.7000,-137.799,3.729,33.880,49.17428527,-121.67773193,0.00000000,
1.5150,-0.5062,-0.0592,0.7539,-1.1821,2.0104,-1.2828,0.0511,1.0791,-1.1814,848.9045,44.8200,-21.6000,-26.7000,-137.799,3.729,33.880,49.17428527,-121.67773193,0.00000000,
1.5180,-0.5062,-0.0592,0.7539,-1.1821,2.0104,-1.2828,0.0511,1.0791,-1.1814,848.9045,44.8200,-21.6000,-26.7000,-137.799,3.729,33.880,49.17428527,-121.67773193,0.00000000,
1.5350,-0.3757,0.0503,0.8149,-1.1821,2.0104,-1.2828,0.0511,1.0791,-1.1814,848.9045,44.8200,-21.6000,-26.7000,-122.984,-3.206,24.753,49.17428527,-121.67773193,0.00000000,
1.5390,-0.3757,0.0503,0.8149,-1.1821,2.0104,-1.2828,0.0511,1.0791,-1.1814,848.9045,46.1400,-20.2200,-26.3400,-119.925,-3.206,24.753,49.17428527,-121.67773193,0.00000000,
1.5420,-0.3757,0.0503,0.8149,-1.1821,2.0104,-1.2828,0.7297,0.2376,-0.4208,848.9045,46.1400,-20.2200,-26.3400,-119.925,-3.206,24.753,49.17428527,-121.67773193,0.00000000,
1.5560,-0.3757,0.0503,0.8149,0.2245,2.7967,-0.7083,0.7297,0.2376,-0.4208,848.9045,46.1400,-20.2200,-26.3400,-119.925,-3.206,24.753,49.17428527,-121.67773193,0.00000000,
1.6040,-0.4950,-0.2409,0.5799,0.2245,2.7967,-0.7083,0.7297,0.2376,-0.4208,848.9045,46.1400,-20.2200,-26.3400,-152.346,17.538,40.481,49.17428527,-121.67773193,0.00000000,
1.6080,-0.4950,-0.2409,0.5799,0.2245,2.7967,-0.7083,0.7297,0.2376,-0.4208,848.9045,47.4000,-18.7800,-26.0400,-149.986,17.538,40.481,49.17428527,-121.67773193,0.00000000,
1.6120,-0.4950,-0.2409,0.5799,0.2245,2.7967,-0.7083,0.4357,1.1452,-0.5198,848.9045,47.4000,-18.7800,-26.0400,-149.986,17.538,40.481,49.17428527,-121.67773193,0.00000000,
1.6220,-0.4950,-0.2409,0.5799,-0.4997,-0.2922,-2.8583,0.4357,1.1452,-0.5198,848.9045,47.4000,-18.7800,-26.0400,-149.986,17.538,40.481,49.17428527,-121.67773193,0.00000000,
1.6540,-0.3406,-0.4501,0.6684,-0.4997,-0.2922,-2.8583,0.4357,1.1452,-0.5198,848.9045,47.4000,-18.7800,-26.0400,-142.134,30.964,27.001,49.17428527,-121.67773193,0.00000000,
1.6550,-0.3406,-0.4501,0.6684,-0.4997,-0.2922,-2.8583,0.4357,1.1452,-0.5198,848.9045,48.4200,-17.2200,-25.7400,-140.290,30.964,27.001,49.17428527,-121.67773193,0.00000000,
1.6560,-0.3406,-0.4501,0.6684,-0.4997,-0.2922,-2.8583,-0.0863,0.6051,-0.1726,848.9045,48.4200,-17.2200,-25.7400,-140.290,30.964,27.001,49.17428527,-121.67773193,0.00000000,
1.6730,-0.3406,-0.4501,0.6684,1.4677,-2.1597,-1.6971,-0.0863,0.6051,-0.1726,848.9045,48.4200,-17.2200,-25.7400,-140.290,30.964,27.001,49.17428527,-121.67773193,0.00000000,
1.6920,-0.3406,-0.4501,0.6684,1.4677,-2.1597,-1.6971,-0.0863,0.6051,-0.1726,848.9019,48.4200,-17.2200,-25.7400,-140.290,30.964,27.001,49.17428527,-121.67773193,0.00000000,
1.6930,-0.3406,-0.4501,0.6684,1.4677,-2.1597,-1.6971,-0.0863,0.6051,-0.1726,848.9019,48.4200,-17.2200,-25.7400,-140.290,30.964,27.001,49.17428527,-121.67773193,0.00000000,
1.7180,-0.4241,-0.5292,0.6048,1.4677,-2.1597,-1.6971,-0.0863,0.6051,-0.1726,848.9019,48.4200,-17.2200,-25.7400,-149.646,35.618,35.038,49.17428527,-121.67773193,0.00000000,
1.7230,-0.4241,-0.5292,0.6048,1.4677,-2.1597,-1.6971,-0.0863,0.6051,-0.1726,848.9019,49.2600,-15.7200,-25.5000,-148.182,35.618,35.038,49.17428527,-121.67773193,0.00000000,
1.7280,-0.4241,-0.5292,0.6048,1.4677,-2.1597,-1.6971,-0.1204,0.4272,-0.4485,848.9019,49.2600,-15.7200,-25.5000,-148.182,35.618,35.038,49.17428527,-121.67773193,0.00000000,
1.7480,-0.4241,-0.5292,0.6048,0.7113,-2.5768,-2.1760,-0.1204,0.4272,-0.4485,848.9019,49.2600,-15.7200,-25.5000,-148.182,35.618,35.038,49.17428527,-121.67773193,0.00000000,
1.7740,-0.5360,-0.4774,0.6386,0.7113,-2.5768,-2.1760,-0.1204,0.4272,-0.4485,848.9019,49.2600,-15.7200,-25.5000,-151.372,29.798,40.010,49.17428527,-121.67773193,0.00000000,
1.7750,-0.5360,-0.4774,0.6386,0.7113,-2.5768,-2.1760,-0.1204,0.4272,-0.4485,848.9019,50.1000,-14.0400,-25.2600,-149.654,29.798,40.010,49.17428527,-121.67773193,0.00000000,
1.7770,-0.5360,-0.4774,0.6386,0.7113,-2.5768,-2.1760,-0.5742,0.4400,-0.3377,848.9019,50.1000,-14.0400,-25.2600,-149.654,29.798,40.010,49.17428527,-121.67773193,0.00000000,
1.7940,-0.5360,-0.4774,0.6386,-0.1350,-1.5296,-1.4920,-0.5742,0.4400,-0.3377,848.9019,50.1000,-14.0400,-25.2600,-149.654,29.798,40.010,49.17428527,-121.67773193,0.00000000,
1.8350,-0.5595,-0.3890,0.5843,-0.1350,-1.5296,-1.4920,-0.5742,0.4400,-0.3377,848.9019,50.1000,-14.0400,-25.2600,-152.248,25.681,43.755,49.17428527,-121.67773193,0.00000000,
1.8360,-0.5595,-0.3890,0.5843,-0.1350,-1.5296,-1.4920,-0.5742,0.4400,-0.3377,848.9019,50.7600,-12.2400,-25.1400,-150.528,25.681,43.755,49.17428527,-121.67773193,0.00000000,
1.8390,-0.5595,-0.3890,0.5843,-0.1350,-1.5296,-1.4920,-0.2812,1.2687,-0.7830,848.9019,50.7600,-12.2400,-25.1400,-150.528,25.681,43.755,49.17428527,-121.67773193,0.00000000,
1.8550,-0.5595,-0.3890,0.5843,-0.1109,-0.3467,-1.7104,-0.2812,1.2687,-0.7830,848.9019,50.7600,-12.2400,-25.1400,-150.528,25.681,43.755,49.17428527,-121.67773193,0.00000000,
1.8740,-0.5595,-0.3890,0.5843,-0.1109,-0.3467,-1.7104,-0.2812,1.2687,-0.7830,848.6885,50.7600,-12.2400,-25.1400,-150.528,25.681,43.755,49.17428527,-121.67773193,0.00000000,
1.8770,-0.5595,-0.3890,0.5843,-0.1109,-0.3467,-1.7104,-0.2812,1.2687,-0.7830,848.6885,50.7600,-12.2400,-25.1400,-150.528,25.681,43.755,49.17428527,-121.67773193,0.00000000,
1.8950,-0.6836,-0.3465,0.7314,-0.1109,-0.3467,-1.7104,-0.2812,1.2687,-0.7830,848.6885,50.7600,-12.2400,-25.1400,-145.434,19.091,43.064,49.17428527,-121.67773193,0.00000000,
1.8960,-0.6836,-0.3465,0.7314,-0.1109,-0.3467,-1.7104,-0.2812,1.2687,-0.7830,848.6885,51.3600,-10.3800,-24.9600,-143.067,19.091,43.064,49.17428527,-121.67773193,0.00000000,
1.8990,-0.6836,-0.3465,0.7314,-0.1109,-0.3467,-1.7104,-0.4463,1.4413,-0.2056,848.6885,51.3600,-10.3800,-24.9600,-143.067,19.091,43.064,49.17428527,-121.67773193,0.00000000,
1.9130,-0.6836,-0.3465,0.7314,-0.8147,0.3959,0.2996,-0.4463,1.4413,-0.2056,848.6885,51.3600,-10.3800,-24.9600,-143.067,19.091,43.064,49.17428527,-121.67773193,0.00000000,
1.9550,-0.8126,-0.2092,0.5135,-0.8147,0.3959,0.2996,-0.4463,1.4413,-0.2056,848.6885,51.3600,-10.3800,-24.9600,-164.078,12.278,57.711,49.17428527,-121.67773193,0.00000000,
1.9560,-0.8126,-0.2092,0.5135,-0.8147,0.3959,0.2996,-0.4463,1.4413,-0.2056,848.6885,51.9600,-8.4000,-24.7200,-161.378,12.278,57.711,49.17428527,-121.67773193,0.00000000,
1.9580,-0.8126,-0.2092,0.5135,-0.8147,0.3959,0.2996,-0.2674,1.3273,-0.0117,848.6885,51.9600,-8.4000,-24.7200,-161.378,12.278,57.711,49.17428527,-121.67773193,0.00000000,
1.9770,-0.8126,-0.2092,0.5135,-1.5052,1.7734,-1.2804,-0.2674,1.3273,-0.0117,848.6885,51.9600,-8.4000,-24.7200,-161.378,12.278,57.711,49.17428527,-121.67773193,0.00000000,
2.0140,-0.9220,-0.2312,0.8350,-1.5052,1.7734,-1.2804,-0.2674,1.3273,-0.0117,848.6885,51.9600,-8.4000,-24.7200,-137.909,10.528,47.836,49.17428527,-121.67773193,0.00000000,
2.0160,-0.9220,-0.2312,0.8350,-1.5052,1.7734,-1.2804,-0.2674,1.3273,-0.0117,848.6885,52.6800,-6.1200,-24.3000,-132.917,10.528,47.836,49.17428527,-121.67773193,0.00000000,
2.0170,-0.9220,-0.2312,0.8350,-1.5052,1.7734,-1.2804,-1.3081,-0.1364,1.0621,848.6885,52.6800,-6.1200,-24.3000,-132.917,10.528,47.836,49.17428527,-121.67773193,0.00000000,
2.0330,-0.9220,-0.2312,0.8350,-2.0821,1.5682,2.4278,-1.3081,-0.1364,1.0621,848.6885,52.6800,-6.1200,-24.3000,-132.917,10.528,47.836,49.17428527,-121.67773193,0.00000000,
2.0520,-0.9220,-0.2312,0.8350,-2.0821,1.5682,2.4278,-1.3081,-0.1364,1.0621,848.7183,52.6800,-6.1200,-24.3000,-132.917,10.528,47.836,49.17428527,-121.67773193,0.00000000,
2.0560,-0.9220,-0.2312,0.8350,-2.0821,1.5682,2.4278,-1.3081,-0.1364,1.0621,848.7183,52.6800,-6.1200,-24.3000,-132.917,10.528,47.836,49.17428527,-121.67773193,0.00000000,
2.0750,-0.6244,-0.1198,0.8560,-2.0821,1.5682,2.4278,-1.3081,-0.1364,1.0621,848.7183,52.6800,-6.1200,-24.3000,-112.634,6.449,36.111,49.17428527,-121.67773193,0.00000000,
2.0760,-0.6244,-0.1198,0.8560,-2.0821,1.5682,2.4278,-1.3081,-0.1364,1.0621,848.7183,53.5800,-3.7200,-23.7600,-107.796,6.449,36.111,49.17428527,-121.67773193,0.00000000,
2.0780,-0.6244,-0.1198,0.8560,-2.0821,1.5682,2.4278,-0.5465,-0.9747,1.4072,848.7183,53.5800,-3.7200,-23.7600,-107.796,6.449,36.111,49.17428527,-121.67773193,0.00000000,
2.0940,-0.6244,-0.1198,0.8560,0.8782,2.1806,2.3929,-0.5465,-0.9747,1.4072,848.7183,53.5800,-3.7200,-23.7600,-107.796,6.449,36.111,49.17428527,-121.67773193,0.00000000,
2.1370,-0.6117,-0.1931,0.7856,0.8782,2.1806,2.3929,-0.5465,-0.9747,1.4072,848.7183,53.5800,-3.7200,-23.7600,-115.979,10.973,37.907,49.17428527,-121.67773193,0.00000000,
2.1410,-0.6117,-0.1931,0.7856,0.8782,2.1806,2.3929,-0.5465,-0.9747,1.4072,848.7183,54.6000,-1.3800,-23.2200,-111.288,10.973,37.907,49.17428527,-121.67773193,0.00000000,
2.1460,-0.6117,-0.1931,0.7856,0.8782,2.1806,2.3929,-0.2961,-2.5183,1.1579,848.7183,54.6000,-1.3800,-23.2200,-111.288,10.973,37.907,49.17428527,-121.67773193,0.00000000,
2.1680,-0.6117,-0.1931,0.7856,0.5677,1.0286,1.0231,-0.2961,-2.5183,1.1579,848.7183,54.6000,-1.3800,-23.2200,-111.288,10.973,37.907,49.17428527,-121.67773193,0.00000000,
2.1930,-0.3943,0.1382,1.4042,0.5677,1.0286,1.0231,-0.2961,-2.5183,1.1579,848.7183,54.6000,-1.3800,-23.2200,-87.368,-5.413,15.685,49.17428527,-121.67773193,0.00000000,
2.1950,-0.3943,0.1382,1.4042,0.5677,1.0286,1.0231,-0.2961,-2.5183,1.1579,848.7183,55.4400,0.7200,-22.6800,-84.931,-5.413,15.685,49.17428527,-121.67773193,0.00000000,
2.1970,-0.3943,0.1382,1.4042,0.5677,1.0286,1.0231,1.2868,-2.5428,1.6117,848.7183,55.4400,0.7200,-22.6800,-84.931,-5.413,15.685,49.17428527,-121.67773193,0.00000000,
2.2140,-0.3943,0.1382,1.4042,1.7313,3.9985,6.1541,1.2868,-2.5428,1.6117,848.7183,55.4400,0.7200,-22.6800,-84.931,-5.413,15.685,49.17428527,-121.67773193,0.00000000,
2.2350,-0.3943,0.1382,1.4042,1.7313,3.9985,6.1541,1.2868,-2.5428,1.6117,848.6982,55.4400,0.7200,-22.6800,-84.931,-5.413,15.685,49.17428527,-121.67773193,0.00000000,
2.2390,-0.3943,0.1382,1.4042,1.7313,3.9985,6.1541,1.2868,-2.5428,1.6117,848.6982,55.4400,0.7200,-22.6800,-84.931,-5.413,15.685,49.17428527,-121.67773193,0.00000000,
2.2550,-0.3880,-0.2664,0.5892,1.7313,3.9985,6.1541,1.2868,-2.5428,1.6117,848.6982,55.4400,0.7200,-22.6800,-116.390,20.685,33.363,49.17428527,-121.67773193,0.00000000,
2.2610,-0.3880,-0.2664,0.5892,1.7313,3.9985,6.1541,1.2868,-2.5428,1.6117,848.6982,55.9200,1.9200,-22.0200,-114.220,20.685,33.363,49.17428527,-121.67773193,0.00000000,
2.2660,-0.3880,-0.2664,0.5892,1.7313,3.9985,6.1541,0.6210,0.2131,0.8938,848.6982,55.9200,1.9200,-22.0200,-114.220,20.685,33.363,49.17428527,-121.67773193,0.00000000,
2.2810,-0.3880,-0.2664,0.5892,1.6112,-0.4303,-2.1071,0.6210,0.2131,0.8938,848.6982,55.9200,1.9200,-22.0200,-114.220,20.685,33.363,49.17428527,-121.67773193,0.00000000,
2.3160,-0.5614,-0.4857,0.7627,1.6112,-0.4303,-2.1071,0.6210,0.2131,0.8938,848.6982,55.9200,1.9200,-22.0200,-123.930,27.154,36.358,49.17428527,-121.67773193,0.00000000,
2.3230,-0.5614,-0.4857,0.7627,1.6112,-0.4303,-2.1071,0.6210,0.2131,0.8938,848.6982,56.4600,2.7000,-21.3600,-122.281,27.154,36.358,49.17428527,-121.67773193,0.00000000,
2.3290,-0.5614,-0.4857,0.7627,1.6112,-0.4303,-2.1071,-0.8043,-1.2868,0.6274,848.6982,56.4600,2.7000,-21.3600,-122.281,27.154,36.358,49.17428527,-121.67773193,0.00000000,
2.3370,-0.5614,-0.4857,0.7627,0.0371,-2.3699,-0.2574,-0.8043,-1.2868,0.6274,848.6982,56.4600,2.7000,-21.3600,-122.281,27.154,36.358,49.17428527,-121.67773193,0.00000000,
2.3760,-0.5536,-0.5009,0.4817,0.0371,-2.3699,-0.2574,-0.8043,-1.2868,0.6274,848.6982,56.4600,2.7000,-21.3600,-144.791,34.316,48.972,49.17428527,-121.67773193,0.00000000,
2.3780,-0.5536,-0.5009,0.4817,0.0371,-2.3699,-0.2574,-0.8043,-1.2868,0.6274,848.6982,56.9400,3.4200,-20.7600,-143.243,34.316,48.972,49.17428527,-121.67773193,0.00000000,
2.3790,-0.5536,-0.5009,0.4817,0.0371,-2.3699,-0.2574,-1.5521,-1.3603,0.3377,848.6982,56.9400,3.4200,-20.7600,-143.243,34.316,48.972,49.17428527,-121.67773193,0.00000000,
2.3940,-0.5536,-0.5009,0.4817,-0.3156,-1.9495,-3.1090,-1.5521,-1.3603,0.3377,848.6982,56.9400,3.4200,-20.7600,-143.243,34.316,48.972,49.17428527,-121.67773193,0.00000000,
2.4150,-0.5536,-0.5009,0.4817,-0.3156,-1.9495,-3.1090,-1.5521,-1.3603,0.3377,848.8899,56.9400,3.4200,-20.7600,-143.243,34.316,48.972,49.17428527,-121.67773193,0.00000000,
2.4190,-0.5536,-0.5009,0.4817,-0.3156,-1.9495,-3.1090,-1.5521,-1.3603,0.3377,848.8899,56.9400,3.4200,-20.7600,-143.243,34.316,48.972,49.17428527,-121.67773193,0.00000000,
2.4350,-0.3362,-0.4408,0.8223,-0.3156,-1.9495,-3.1090,-1.5521,-1.3603,0.3377,848.8899,56.9400,3.4200,-20.7600,-108.556,26.390,22.236,49.17428527,-121.67773193,0.00000000,
2.4390,-0.3362,-0.4408,0.8223,-0.3156,-1.9495,-3.1090,-1.5521,-1.3603,0.3377,848.8899,57.2400,3.7800,-20.2800,-107.844,26.390,22.236,49.17428527,-121.67773193,0.00000000,
2.4440,-0.3362,-0.4408,0.8223,-0.3156,-1.9495,-3.1090,-1.4328,-0.5145,0.4815,848.8899,57.2400,3.7800,-20.2800,-107.844,26.390,22.236,49.17428527,-121.67773193,0.00000000,
2.4580,-0.3362,-0.4408,0.8223,1.3767,-0.6311,0.2644,-1.4328,-0.5145,0.4815,848.8899,57.2400,3.7800,-20.2800,-107.844,26.390,22.236,49.17428527,-121.67773193,0.00000000,
2.5000,-0.4119,-0.1994,0.6376,1.3767,-0.6311,0.2644,-1.4328,-0.5145,0.4815,848.8899,57.2400,3.7800,-20.2800,-103.008,14.720,32.864,49.17428527,-121.67773193,0.00000000,
2.5090,-0.4119,-0.1994,0.6376,1.3767,-0.6311,0.2644,-1.4328,-0.5145,0.4815,848.8899,57.3000,4.1400,-19.9800,-102.345,14.720,32.864,49.17428527,-121.67773193,0.00000000,
2.5170,-0.4119,-0.1994,0.6376,1.3767,-0.6311,0.2644,-0.6413,0.3611,0.2780,848.8899,57.3000,4.1400,-19.9800,-102.345,14.720,32.864,49.17428527,-121.67773193,0.00000000,
2.5200,-0.4119,-0.1994,0.6376,0.6955,2.0410,-1.3554,-0.6413,0.3611,0.2780,848.8899,57.3000,4.1400,-19.9800,-102.345,14.720,32.864,49.17428527,-121.67773193,0.00000000,
2.5530,-0.4578,-0.3289,0.6982,0.6955,2.0410,-1.3554,-0.6413,0.3611,0.2780,848.8899,57.3000,4.1400,-19.9800,-110.459,21.501,33.255,49.17428527,-121.67773193,0.00000000,
2.5550,-0.4578,-0.3289,0.6982,0.6955,2.0410,-1.3554,-0.6413,0.3611,0.2780,848.8899,57.3600,4.3800,-19.8000,-110.022,21.501,33.255,49.17428527,-121.67773193,0.00000000,
2.5560,-0.4578,-0.3289,0.6982,0.6955,2.0410,-1.3554,-1.1441,-0.1449,-0.1087,848.8899,57.3600,4.3800,-19.8000,-110.022,21.501,33.255,49.17428527,-121.67773193,0.00000000,
2.5730,-0.4578,-0.3289,0.6982,0.2579,1.2648,-0.4735,-1.1441,-0.1449,-0.1087,848.8899,57.3600,4.3800,-19.8000,-110.022,21.501,33.255,49.17428527,-121.67773193,0.00000000,
2.5930,-0.4578,-0.3289,0.6982,0.2579,1.2648,-0.4735,-1.1441,-0.1449,-0.1087,848.9429,57.3600,4.3800,-19.8000,-110.022,21.501,33.255,49.17428527,-121.67773193,0.00000000,
2.5940,-0.4578,-0.3289,0.6982,0.2579,1.2648,-0.4735,-1.1441,-0.1449,-0.1087,848.9429,57.3600,4.3800,-19.8000,-110.022,21.501,33.255,49.17428527,-121.67773193,0.00000000,
2.6130,-0.6269,-0.6533,0.6444,0.2579,1.2648,-0.4735,-1.1441,-0.1449,-0.1087,848.9429,57.3600,4.3800,-19.8000,-136.034,36.006,44.210,49.17428527,-121.67773193,0.00000000,
2.6150,-0.6269,-0.6533,0.6444,0.2579,1.2648,-0.4735,-1.1441,-0.1449,-0.1087,848.9429,57.3000,4.5600,-19.6200,-135.698,36.006,44.210,49.17428527,-121.67773193,0.00000000,
2.6170,-0.6269,-0.6533,0.6444,0.2579,1.2648,-0.4735,-1.5393,-0.9918,0.3004,848.9429,57.3000,4.5600,-19.6200,-135.698,36.006,44.210,49.17428527,-121.67773193,0.00000000,
2.6330,-0.6269,-0.6533,0.6444,-1.5880,-1.3589,-0.7542,-1.5393,-0.9918,0.3004,848.9429,57.3000,4.5600,-19.6200,-135.698,36.006,44.210,49.17428527,-121.67773193,0.00000000,
2.6790,-0.5512,-0.6787,0.4617,-1.5880,-1.3589,-0.7542,-1.5393,-0.9918,0.3004,848.9429,57.3000,4.5600,-19.6200,-148.491,43.351,50.049,49.17428527,-121.67773193,0.00000000,
2.6840,-0.5512,-0.6787,0.4617,-1.5880,-1.3589,-0.7542,-1.5393,-0.9918,0.3004,848.9429,57.1200,5.0400,-19.5600,-148.231,43.351,50.049,49.17428527,-121.67773193,0.00000000,
2.6880,-0.5512,-0.6787,0.4617,-1.5880,-1.3589,-0.7542,-1.7044,-1.0205,0.8852,848.9429,57.1200,5.0400,-19.5600,-148.231,43.351,50.049,49.17428527,-121.67773193,0.00000000,
2.7000,-0.5512,-0.6787,0.4617,-1.0167,-1.0537,-2.2289,-1.7044,-1.0205,0.8852,848.9429,57.1200,5.0400,-19.5600,-148.231,43.351,50.049,49.17428527,-121.67773193,0.00000000,
2.7350,0.3342,-0.3616,1.6348,-1.0167,-1.0537,-2.2289,-1.7044,-1.0205,0.8852,848.9429,57.1200,5.0400,-19.5600,-86.855,12.228,-11.554,49.17428527,-121.67773193,0.00000000,
2.7360,0.3342,-0.3616,1.6348,-1.0167,-1.0537,-2.2289,-1.7044,-1.0205,0.8852,848.9429,56.5800,5.7000,-19.6200,-86.242,12.228,-11.554,49.17428527,-121.67773193,0.00000000,
2.7380,0.3342,-0.3616,1.6348,-1.0167,-1.0537,-2.2289,-0.8767,0.5859,0.5177,848.9429,56.5800,5.7000,-19.6200,-86.242,12.228,-11.554,49.17428527,-121.67773193,0.00000000,
2.7520,0.3342,-0.3616,1.6348,7.7880,2.5542,9.8071,-0.8767,0.5859,0.5177,848.9429,56.5800,5.7000,-19.6200,-86.242,12.228,-11.554,49.17428527,-121.67773193,0.00000000,
2.7760,0.3342,-0.3616,1.6348,7.7880,2.5542,9.8071,-0.8767,0.5859,0.5177,848.8909,56.5800,5.7000,-19.6200,-86.242,12.228,-11.554,49.17428527,-121.67773193,0.00000000,
2.7820,0.3342,-0.3616,1.6348,7.7880,2.5542,9.8071,-0.8767,0.5859,0.5177,848.8909,56.5800,5.7000,-19.6200,-86.242,12.228,-11.554,49.17428527,-121.67773193,0.00000000,
2.7970,0.0493,-0.7765,0.6703,7.7880,2.5542,9.8071,-0.8767,0.5859,0.5177,848.8909,56.5800,5.7000,-19.6200,-97.796,49.120,-4.211,49.17428527,-121.67773193,0.00000000,
2.8030,0.0493,-0.7765,0.6703,7.7880,2.5542,9.8071,-0.8767,0.5859,0.5177,848.8909,56.1000,6.4200,-19.6200,-97.424,49.120,-4.211,49.17428527,-121.67773193,0.00000000,
2.8130,0.0493,-0.7765,0.6703,7.7880,2.5542,9.8071,0.2823,-0.1119,-0.6977,848.8909,56.1000,6.4200,-19.6200,-97.424,49.120,-4.211,49.17428527,-121.67773193,0.00000000,
2.8170,0.0493,-0.7765,0.6703,5.0015,-1.6318,0.2424,0.2823,-0.1119,-0.6977,848.8909,56.1000,6.4200,-19.6200,-97.424,49.120,-4.211,49.17428527,-121.67773193,0.00000000,
2.8570,-0.1735,-0.6807,0.9180,5.0015,-1.6318,0.2424,0.2823,-0.1119,-0.6977,848.8909,56.1000,6.4200,-19.6200,-103.434,36.076,10.699,49.17428527,-121.67773193,0.00000000,
2.8610,-0.1735,-0.6807,0.9180,5.0015,-1.6318,0.2424,0.2823,-0.1119,-0.6977,848.8909,55.5000,7.2000,-19.7400,-102.921,36.076,10.699,49.17428527,-121.67773193,0.00000000,
2.8660,-0.1735,-0.6807,0.9180,5.0015,-1.6318,0.2424,0.0447,0.8852,1.0493,848.8909,55.5000,7.2000,-19.7400,-102.921,36.076,10.699,49.17428527,-121.67773193,0.00000000,
2.8790,-0.1735,-0.6807,0.9180,2.4579,-0.7968,2.3350,0.0447,0.8852,1.0493,848.8909,55.5000,7.2000,-19.7400,-102.921,36.076,10.699,49.17428527,-121.67773193,0.00000000,
2.9140,-0.1862,-0.3856,0.7817,2.4579,-0.7968,2.3350,0.0447,0.8852,1.0493,848.8909,55.5000,7.2000,-19.7400,-98.492,25.633,13.395,49.17428527,-121.67773193,0.00000000,
2.9160,-0.1862,-0.3856,0.7817,2.4579,-0.7968,2.3350,0.0447,0.8852,1.0493,848.8909,54.8400,7.9800,-20.1000,-97.904,25.633,13.395,49.17428527,-121.67773193,0.00000000,
2.9180,-0.1862,-0.3856,0.7817,2.4579,-0.7968,2.3350,-0.0447,0.1555,0.3867,848.8909,54.8400,7.9800,-20.1000,-97.904,25.633,13.395,49.17428527,-121.67773193,0.00000000,
2.9330,-0.1862,-0.3856,0.7817,2.8764,2.0121,1.2937,-0.0447,0.1555,0.3867,848.8909,54.8400,7.9800,-20.1000,-97.904,25.633,13.395,49.17428527,-121.67773193,0.00000000,
2.9520,-0.1862,-0.3856,0.7817,2.8764,2.0121,1.2937,-0.0447,0.1555,0.3867,848.8533,54.8400,7.9800,-20.1000,-97.904,25.633,13.395,49.17428527,-121.67773193,0.00000000,
2.9540,-0.1862,-0.3856,0.7817,2.8764,2.0121,1.2937,-0.0447,0.1555,0.3867,848.8533,54.8400,7.9800,-20.1000,-97.904,25.633,13.395,49.17428527,-121.67773193,0.00000000,
2.9880,-0.6630,-0.7476,0.5223,2.8764,2.0121,1.2937,-0.0447,0.1555,0.3867,848.8533,54.8400,7.9800,-20.1000,-149.530,41.534,51.773,49.17428527,-121.67773193,0.00000000,
2.9960,-0.6630,-0.7476,0.5223,2.8764,2.0121,1.2937,-0.0447,0.1555,0.3867,848.8533,54.0000,8.7000,-20.8200,-150.506,41.534,51.773,49.17428527,-121.67773193,0.00000000,
3.0000,-0.6630,-0.7476,0.5223,2.8764,2.0121,1.2937,0.0692,-0.6157,-0.1076,848.8533,54.0000,8.7000,-20.8200,-150.506,41.534,51.773,49.17428527,-121.67773193,0.00000000,
3.0010,-0.6630,-0.7476,0.5223,-1.9246,-1.6150,-1.4110,0.0692,-0.6157,-0.1076,848.8533,54.0000,8.7000,-20.8200,-150.506,41.534,51.773,49.17428527,-121.67773193,0.00000000,
3.0320,-0.4070,-0.6333,0.4807,-1.9246,-1.6150,-1.4110,0.0692,-0.6157,-0.1076,848.8533,54.0000,8.7000,-20.8200,-137.098,45.155,40.253,49.17428527,-121.67773193,0.00000000,
3.0340,-0.4070,-0.6333,0.4807,-1.9246,-1.6150,-1.4110,0.0692,-0.6157,-0.1076,848.8533,52.9800,9.4800,-21.7200,-138.020,45.155,40.253,49.17428527,-121.67773193,0.00000000,
3.0350,-0.4070,-0.6333,0.4807,-1.9246,-1.6150,-1.4110,-0.1886,-0.2237,-0.2684,848.8533,52.9800,9.4800,-21.7200,-138.020,45.155,40.253,49.17428527,-121.67773193,0.00000000,
3.0560,-0.4070,-0.6333,0.4807,0.1526,-0.3130,-1.9437,-0.1886,-0.2237,-0.2684,848.8533,52.9800,9.4800,-21.7200,-138.020,45.155,40.253,49.17428527,-121.67773193,0.00000000,
3.1020,-0.3108,-0.7340,0.6816,0.1526,-0.3130,-1.9437,-0.1886,-0.2237,-0.2684,848.8533,52.9800,9.4800,-21.7200,-119.795,44.417,24.511,49.17428527,-121.67773193,0.00000000,
3.1110,-0.3108,-0.7340,0.6816,0.1526,-0.3130,-1.9437,-0.1886,-0.2237,-0.2684,848.8533,51.9600,10.3200,-22.5600,-120.214,44.417,24.511,49.17428527,-121.67773193,0.00000000,
3.1200,-0.3108,-0.7340,0.6816,0.1526,-0.3130,-1.9437,0.0138,0.5220,-0.1587,848.8533,51.9600,10.3200,-22.5600,-120.214,44.417,24.511,49.17428527,-121.67773193,0.00000000,
3.1240,-0.3108,-0.7340,0.6816,1.1537,-1.1575,0.1898,0.0138,0.5220,-0.1587,848.8533,51.9600,10.3200,-22.5600,-120.214,44.417,24.511,49.17428527,-121.67773193,0.00000000,
3.1370,-0.3108,-0.7340,0.6816,1.1537,-1.1575,0.1898,0.0138,0.5220,-0.1587,848.9033,51.9600,10.3200,-22.5600,-120.214,44.417,24.511,49.17428527,-121.67773193,0.00000000,
3.1400,-0.3108,-0.7340,0.6816,1.1537,-1.1575,0.1898,0.0138,0.5220,-0.1587,848.9033,51.9600,10.3200,-22.5600,-120.214,44.417,24.511,49.17428527,-121.67773193,0.00000000,
3.1530,-0.4231,-0.5243,0.6415,1.1537,-1.1575,0.1898,0.0138,0.5220,-0.1587,848.9033,51.9600,10.3200,-22.5600,-120.476,34.306,33.410,49.17428527,-121.67773193,0.00000000,
3.1580,-0.4231,-0.5243,0.6415,1.1537,-1.1575,0.1898,0.0138,0.5220,-0.1587,848.9033,50.9400,11.1600,-23.4000,-120.703,34.306,33.410,49.17428527,-121.67773193,0.00000000,
3.1610,-0.4231,-0.5243,0.6415,1.1537,-1.1575,0.1898,0.0980,0.7638,0.1768,848.9033,50.9400,11.1600,-23.4000,-120.703,34.306,33.410,49.17428527,-121.67773193,0.00000000,
3.1730,-0.4231,-0.5243,0.6415,0.2463,0.9229,-0.0482,0.0980,0.7638,0.1768,848.9033,50.9400,11.1600,-23.4000,-120.703,34.306,33.410,49.17428527,-121.67773193,0.00000000,
3.2200,-0.5248,-0.5292,0.5408,0.2463,0.9229,-0.0482,0.0980,0.7638,0.1768,848.9033,50.9400,11.1600,-23.4000,-135.893,35.080,44.136,49.17428527,-121.67773193,0.00000000,
3.2270,-0.5248,-0.5292,0.5408,0.2463,0.9229,-0.0482,0.0980,0.7638,0.1768,848.9033,50.0400,12.2400,-23.9400,-135.941,35.080,44.136,49.17428527,-121.67773193,0.00000000,
3.2380,-0.5248,-0.5292,0.5408,0.2463,0.9229,-0.0482,0.6487,-0.3260,-0.3419,848.9033,50.0400,12.2400,-23.9400,-135.941,35.080,44.136,49.17428527,-121.67773193,0.00000000,
3.2420,-0.5248,-0.5292,0.5408,-0.3879,0.6686,-0.9672,0.6487,-0.3260,-0.3419,848.9033,50.0400,12.2400,-23.9400,-135.941,35.080,44.136,49.17428527,-121.67773193,0.00000000,
3.2760,-0.6181,-0.9143,0.7089,-0.3879,0.6686,-0.9672,0.6487,-0.3260,-0.3419,848.9033,50.0400,12.2400,-23.9400,-140.556,44.188,41.085,49.17428527,-121.67773193,0.00000000,
3.2810,-0.6181,-0.9143,0.7089,-0.3879,0.6686,-0.9672,0.6487,-0.3260,-0.3419,848.9033,49.3200,13.3800,-24.3600,-140.631,44.188,41.085,49.17428527,-121.67773193,0.00000000,
3.2850,-0.6181,-0.9143,0.7089,-0.3879,0.6686,-0.9672,-0.3260,0.0266,-0.1481,848.9033,49.3200,13.3800,-24.3600,-140.631,44.188,41.085,49.17428527,-121.67773193,0.00000000,
3.2980,-0.6181,-0.9143,0.7089,-1.6441,-3.0774,0.4595,-0.3260,0.0266,-0.1481,848.9033,49.3200,13.3800,-24.3600,-140.631,44.188,41.085,49.17428527,-121.67773193,0.00000000,
3.3110,-0.6181,-0.9143,0.7089,-1.6441,-3.0774,0.4595,-0.3260,0.0266,-0.1481,848.8167,49.3200,13.3800,-24.3600,-140.631,44.188,41.085,49.17428527,-121.67773193,0.00000000,
3.3130,-0.6181,-0.9143,0.7089,-1.6441,-3.0774,0.4595,-0.3260,0.0266,-0.1481,848.8167,49.3200,13.3800,-24.3600,-140.631,44.188,41.085,49.17428527,-121.67773193,0.00000000,
3.3320,-0.1266,-0.7862,0.4275,-1.6441,-3.0774,0.4595,-0.3260,0.0266,-0.1481,848.8167,49.3200,13.3800,-24.3600,-122.677,60.446,16.491,49.17428527,-121.67773193,0.00000000,
3.3340,-0.1266,-0.7862,0.4275,-1.6441,-3.0774,0.4595,-0.3260,0.0266,-0.1481,848.8167,48.7200,14.6400,-24.7200,-122.641,60.446,16.491,49.17428527,-121.67773193,0.00000000,
3.3360,-0.1266,-0.7862,0.4275,-1.6441,-3.0774,0.4595,-0.5081,1.1100,0.7734,848.8167,48.7200,14.6400,-24.7200,-122.641,60.446,16.491,49.17428527,-121.67773193,0.00000000,
3.3510,-0.1266,-0.7862,0.4275,3.5002,-1.6895,-1.9354,-0.5081,1.1100,0.7734,848.8167,48.7200,14.6400,-24.7200,-122.641,60.446,16.491,49.17428527,-121.67773193,0.00000000,
3.3950,-0.6782,-0.7442,0.7392,3.5002,-1.6895,-1.9354,-0.5081,1.1100,0.7734,848.8167,48.7200,14.6400,-24.7200,-134.291,36.570,42.535,49.17428527,-121.67773193,0.00000000,
3.4000,-0.6782,-0.7442,0.7392,3.5002,-1.6895,-1.9354,-0.5081,1.1100,0.7734,848.8167,48.4800,15.9600,-24.7800,-132.834,36.570,42.535,49.17428527,-121.67773193,0.00000000,
3.4070,-0.6782,-0.7442,0.7392,3.5002,-1.6895,-1.9354,1.0834,0.5678,0.4410,848.8167,48.4800,15.9600,-24.7800,-132.834,36.570,42.535,49.17428527,-121.67773193,0.00000000,
3.4210,-0.6782,-0.7442,0.7392,-2.0050,-1.5148,0.8226,1.0834,0.5678,0.4410,848.8167,48.4800,15.9600,-24.7800,-132.834,36.570,42.535,49.17428527,-121.67773193,0.00000000,
3.4520,-0.3547,-0.4159,1.0207,-2.0050,-1.5148,0.8226,1.0834,0.5678,0.4410,848.8167,48.4800,15.9600,-24.7800,-88.827,21.050,19.165,49.17428527,-121.67773193,0.00000000,
3.4540,-0.3547,-0.4159,1.0207,-2.0050,-1.5148,0.8226,1.0834,0.5678,0.4410,848.8167,48.4200,17.1600,-24.6600,-87.052,21.050,19.165,49.17428527,-121.67773193,0.00000000,
3.4590,-0.3547,-0.4159,1.0207,-2.0050,-1.5148,0.8226,0.3856,0.9555,0.7755,848.8167,48.4200,17.1600,-24.6600,-87.052,21.050,19.165,49.17428527,-121.67773193,0.00000000,
3.4690,-0.3547,-0.4159,1.0207,1.6322,1.3770,3.6507,0.3856,0.9555,0.7755,848.8167,48.4200,17.1600,-24.6600,-87.052,21.050,19.165,49.17428527,-121.67773193,0.00000000,
3.4890,-0.3547,-0.4159,1.0207,1.6322,1.3770,3.6507,0.3856,0.9555,0.7755,848.8733,48.4200,17.1600,-24.6600,-87.052,21.050,19.165,49.17428527,-121.67773193,0.00000000,
3.4920,-0.3547,-0.4159,1.0207,1.6322,1.3770,3.6507,0.3856,0.9555,0.7755,848.8733,48.4200,17.1600,-24.6600,-87.052,21.050,19.165,49.17428527,-121.67773193,0.00000000,
3.5130,-0.3068,-0.2527,0.8389,1.6322,1.3770,3.6507,0.3856,0.9555,0.7755,848.8733,48.4200,17.1600,-24.6600,-81.272,15.795,20.092,49.17428527,-121.67773193,0.00000000,
3.5180,-0.3068,-0.2527,0.8389,1.6322,1.3770,3.6507,0.3856,0.9555,0.7755,848.8733,48.5400,18.0000,-24.4200,-80.029,15.795,20.092,49.17428527,-121.67773193,0.00000000,
3.5220,-0.3068,-0.2527,0.8389,1.6322,1.3770,3.6507,2.1444,1.1931,0.1939,848.8733,48.5400,18.0000,-24.4200,-80.029,15.795,20.092,49.17428527,-121.67773193,0.00000000,
3.5370,-0.3068,-0.2527,0.8389,2.4127,2.2011,1.5190,2.1444,1.1931,0.1939,848.8733,48.5400,18.0000,-24.4200,-80.029,15.795,20.092,49.17428527,-121.67773193,0.00000000,
3.5780,-1.0544,-0.0123,0.7363,2.4127,2.2011,1.5190,2.1444,1.1931,0.1939,848.8733,48.5400,18.0000,-24.4200,-23.953,0.547,55.074,49.17428527,-121.67773193,0.00000000,
3.5850,-1.0544,-0.0123,0.7363,2.4127,2.2011,1.5190,2.1444,1.1931,0.1939,848.8733,49.0200,18.5400,-23.8800,-25.209,0.547,55.074,49.17428527,-121.67773193,0.00000000,
3.5920,-1.0544,-0.0123,0.7363,2.4127,2.2011,1.5190,2.3979,1.5617,0.8139,848.8733,49.0200,18.5400,-23.8800,-25.209,0.547,55.074,49.17428527,-121.67773193,0.00000000,
3.5970,-1.0544,-0.0123,0.7363,-4.3126,3.4929,0.3697,2.3979,1.5617,0.8139,848.8733,49.0200,18.5400,-23.8800,-25.209,0.547,55.074,49.17428527,-121.67773193,0.00000000,
3.6330,-0.5614,0.1289,-0.0905,-4.3126,3.4929,0.3697,2.3979,1.5617,0.8139,848.8733,49.0200,18.5400,-23.8800,48.310,-12.775,99.153,49.17428527,-121.67773193,0.00000000,
3.6360,-0.5614,0.1289,-0.0905,-4.3126,3.4929,0.3697,2.3979,1.5617,0.8139,848.8733,49.7400,18.3600,-23.1600,47.757,-12.775,99.153,49.17428527,-121.67773193,0.00000000,
3.6400,-0.5614,0.1289,-0.0905,-4.3126,3.4929,0.3697,4.0171,4.9450,1.0504,848.8733,49.7400,18.3600,-23.1600,47.757,-12.775,99.153,49.17428527,-121.67773193,0.00000000,
3.6560,-0.5614,0.1289,-0.0905,1.8621,3.1935,-7.0684,4.0171,4.9450,1.0504,848.8733,49.7400,18.3600,-23.1600,47.757,-12.775,99.153,49.17428527,-121.67773193,0.00000000,
3.6700,-0.5614,0.1289,-0.0905,1.8621,3.1935,-7.0684,4.0171,4.9450,1.0504,848.8735,49.7400,18.3600,-23.1600,47.757,-12.775,99.153,49.17428527,-121.67773193,0.00000000,
3.6750,-0.5614,0.1289,-0.0905,1.8621,3.1935,-7.0684,4.0171,4.9450,1.0504,848.8735,49.7400,18.3600,-23.1600,47.757,-12.775,99.153,49.17428527,-121.67773193,0.00000000,
3.6960,-0.5497,-0.0504,-0.5629,1.8621,3.1935,-7.0684,4.0171,4.9450,1.0504,848.8735,49.7400,18.3600,-23.1600,71.660,3.664,135.682,49.17428527,-121.67773193,0.00000000,
3.7010,-0.5497,-0.0504,-0.5629,1.8621,3.1935,-7.0684,4.0171,4.9450,1.0504,848.8735,50.8800,17.1600,-21.8400,72.942,3.664,135.682,49.17428527,-121.67773193,0.00000000,
3.7060,-0.5497,-0.0504,-0.5629,1.8621,3.1935,-7.0684,2.4672,2.3383,1.9004,848.8735,50.8800,17.1600,-21.8400,72.942,3.664,135.682,49.17428527,-121.67773193,0.00000000,
3.7180,-0.5497,-0.0504,-0.5629,3.2374,-0.1919,-10.1751,2.4672,2.3383,1.9004,848.8735,50.8800,17.1600,-21.8400,72.942,3.664,135.682,49.17428527,-121.67773193,0.00000000,
3.7510,-0.8297,-0.1002,0.8276,3.2374,-0.1919,-10.1751,2.4672,2.3383,1.9004,848.8735,50.8800,17.1600,-21.8400,-58.158,4.888,45.070,49.17428527,-121.67773193,0.00000000,
3.7560,-0.8297,-0.1002,0.8276,3.2374,-0.1919,-10.1751,2.4672,2.3383,1.9004,848.8735,52.2000,15.2400,-20.1000,-64.440,4.888,45.070,49.17428527,-121.67773193,0.00000000,
3.7600,-0.8297,-0.1002,0.8276,3.2374,-0.1919,-10.1751,-0.5081,-1.9526,0.5252,848.8735,52.2000,15.2400,-20.1000,-64.440,4.888,45.070,49.17428527,-121.67773193,0.00000000,
3.7700,-0.8297,-0.1002,0.8276,0.1974,-1.7584,2.9913,-0.5081,-1.9526,0.5252,848.8735,52.2000,15.2400,-20.1000,-64.440,4.888,45.070,49.17428527,-121.67773193,0.00000000,
3.8080,-0.8697,-0.2439,-0.1349,0.1974,-1.7584,2.9913,-0.5081,-1.9526,0.5252,848.8735,52.2000,15.2400,-20.1000,86.437,15.488,98.818,49.17428527,-121.67773193,0.00000000,
3.8100,-0.8697,-0.2439,-0.1349,0.1974,-1.7584,2.9913,-0.5081,-1.9526,0.5252,848.8735,53.4000,13.1400,-18.4800,91.455,15.488,98.818,49.17428527,-121.67773193,0.00000000,
3.8110,-0.8697,-0.2439,-0.1349,0.1974,-1.7584,2.9913,2.2211,2.8155,-0.2535,848.8735,53.4000,13.1400,-18.4800,91.455,15.488,98.818,49.17428527,-121.67773193,0.00000000,
3.8280,-0.8697,-0.2439,-0.1349,0.2171,-3.8352,-5.5278,2.2211,2.8155,-0.2535,848.8735,53.4000,13.1400,-18.4800,91.455,15.488,98.818,49.17428527,-121.67773193,0.00000000,
3.8470,-0.8697,-0.2439,-0.1349,0.2171,-3.8352,-5.5278,2.2211,2.8155,-0.2535,848.8340,53.4000,13.1400,-18.4800,91.455,15.488,98.818,49.17428527,-121.67773193,0.00000000,
3.8480,-0.8697,-0.2439,-0.1349,0.2171,-3.8352,-5.5278,2.2211,2.8155,-0.2535,848.8340,53.4000,13.1400,-18.4800,91.455,15.488,98.818,49.17428527,-121.67773193,0.00000000,
3.8680,-1.3388,-0.2566,-0.0909,0.2171,-3.8352,-5.5278,2.2211,2.8155,-0.2535,848.8340,53.4000,13.1400,-18.4800,81.909,10.825,93.886,49.17428527,-121.67773193,0.00000000,
3.8690,-1.3388,-0.2566,-0.0909,0.2171,-3.8352,-5.5278,2.2211,2.8155,-0.2535,848.8340,54.6000,10.8600,-16.6800,88.175,10.825,93.886,49.17428527,-121.67773193,0.00000000,
3.8710,-1.3388,-0.2566,-0.0909,0.2171,-3.8352,-5.5278,0.3558,3.3407,-0.0160,848.8340,54.6000,10.8600,-16.6800,88.175,10.825,93.886,49.17428527,-121.67773193,0.00000000,
3.8900,-1.3388,-0.2566,-0.0909,-3.8103,-3.9854,-3.5989,0.3558,3.3407,-0.0160,848.8340,54.6000,10.8600,-16.6800,88.175,10.825,93.886,49.17428527,-121.67773193,0.00000000,
3.9380,-1.4145,0.0151,-0.1198,-3.8103,-3.9854,-3.5989,0.3558,3.3407,-0.0160,848.8340,54.6000,10.8600,-16.6800,61.715,-0.609,94.840,49.17428527,-121.67773193,0.00000000,
3.9440,-1.4145,0.0151,-0.1198,-3.8103,-3.9854,-3.5989,0.3558,3.3407,-0.0160,848.8340,55.8000,8.2800,-14.1000,64.722,-0.609,94.840,49.17428527,-121.67773193,0.00000000,
3.9500,-1.4145,0.0151,-0.1198,-3.8103,-3.9854,-3.5989,-1.4562,3.6123,0.9673,848.8340,55.8000,8.2800,-14.1000,64.722,-0.609,94.840,49.17428527,-121.67773193,0.00000000,
3.9570,-1.4145,0.0151,-0.1198,-4.1731,-1.2137,-1.8314,-1.4562,3.6123,0.9673,848.8340,55.8000,8.2800,-14.1000,64.722,-0.609,94.840,49.17428527,-121.67773193,0.00000000,
3.9900,-1.5093,0.1113,-0.1129,-4.1731,-1.2137,-1.8314,-1.4562,3.6123,0.9673,848.8340,55.8000,8.2800,-14.1000,56.064,-4.207,94.279,49.17428527,-121.67773193,0.00000000,
3.9950,-1.5093,0.1113,-0.1129,-4.1731,-1.2137,-1.8314,-1.4562,3.6123,0.9673,848.8340,57.0000,5.5200,-10.8600,57.481,-4.207,94.279,49.17428527,-121.67773193,0.00000000,
3.9990,-1.5093,0.1113,-0.1129,-4.1731,-1.2137,-1.8314,-1.4424,0.1598,1.4243,848.8340,57.0000,5.5200,-10.8600,57.481,-4.207,94.279,49.17428527,-121.67773193,0.00000000,
4.0100,-1.5093,0.1113,-0.1129,-5.1596,-0.7028,-0.6830,-1.4424,0.1598,1.4243,848.8340,57.0000,5.5200,-10.8600,57.481,-4.207,94.279,49.17428527,-121.67773193,0.00000000,
4.0290,-1.5093,0.1113,-0.1129,-5.1596,-0.7028,-0.6830,-1.4424,0.1598,1.4243,848.7515,57.0000,5.5200,-10.8600,57.481,-4.207,94.279,49.17428527,-121.67773193,0.00000000,
4.0360,-1.5093,0.1113,-0.1129,-5.1596,-0.7028,-0.6830,-1.4424,0.1598,1.4243,848.7515,57.0000,5.5200,-10.8600,57.481,-4.207,94.279,49.17428527,-121.67773193,0.00000000,
4.0490,-1.0051,0.2907,0.4695,-5.1596,-0.7028,-0.6830,-1.4424,0.1598,1.4243,848.7515,57.0000,5.5200,-10.8600,-36.092,-14.682,64.962,49.17428527,-121.67773193,0.00000000,
4.0510,-1.0051,0.2907,0.4695,-5.1596,-0.7028,-0.6830,-1.4424,0.1598,1.4243,848.7515,58.0800,2.4600,-7.6800,-46.813,-14.682,64.962,49.17428527,-121.67773193,0.00000000,
4.0530,-1.0051,0.2907,0.4695,-5.1596,-0.7028,-0.6830,-1.6117,-2.4139,1.4935,848.7515,58.0800,2.4600,-7.6800,-46.813,-14.682,64.962,49.17428527,-121.67773193,0.00000000,
4.0710,-1.0051,0.2907,0.4695,-0.3352,0.4732,4.5721,-1.6117,-2.4139,1.4935,848.7515,58.0800,2.4600,-7.6800,-46.813,-14.682,64.962,49.17428527,-121.67773193,0.00000000,
4.1190,-0.3919,0.3429,0.2843,-0.3352,0.4732,4.5721,-1.6117,-2.4139,1.4935,848.7515,58.0800,2.4600,-7.6800,-41.264,-35.312,54.038,49.17428527,-121.67773193,0.00000000,
4.1250,-0.3919,0.3429,0.2843,-0.3352,0.4732,4.5721,-1.6117,-2.4139,1.4935,848.7515,59.1600,-0.7800,-4.6800,-47.232,-35.312,54.038,49.17428527,-121.67773193,0.00000000,
4.1330,-0.3919,0.3429,0.2843,-0.3352,0.4732,4.5721,0.3846,0.0192,0.7159,848.7515,59.1600,-0.7800,-4.6800,-47.232,-35.312,54.038,49.17428527,-121.67773193,0.00000000,
4.1350,-0.3919,0.3429,0.2843,5.4432,0.3997,1.6824,0.3846,0.0192,0.7159,848.7515,59.1600,-0.7800,-4.6800,-47.232,-35.312,54.038,49.17428527,-121.67773193,0.00000000,
4.1690,-1.2709,-0.1706,-0.0778,5.4432,0.3997,1.6824,0.3846,0.0192,0.7159,848.7515,59.1600,-0.7800,-4.6800,135.994,7.631,93.501,49.17428527,-121.67773193,0.00000000,
4.1710,-1.2709,-0.1706,-0.0778,5.4432,0.3997,1.6824,0.3846,0.0192,0.7159,848.7515,60.1200,-4.2000,-1.9200,155.241,7.631,93.501,49.17428527,-121.67773193,0.00000000,
4.1730,-1.2709,-0.1706,-0.0778,5.4432,0.3997,1.6824,2.4086,1.2123,-1.1867,848.7515,60.1200,-4.2000,-1.9200,155.241,7.631,93.501,49.17428527,-121.67773193,0.00000000,
4.1900,-1.2709,-0.1706,-0.0778,-3.1428,-4.6078,-1.6778,2.4086,1.2123,-1.1867,848.7515,60.1200,-4.2000,-1.9200,155.241,7.631,93.501,49.17428527,-121.67773193,0.00000000,
4.2090,-1.2709,-0.1706,-0.0778,-3.1428,-4.6078,-1.6778,2.4086,1.2123,-1.1867,848.7124,60.1200,-4.2000,-1.9200,155.241,7.631,93.501,49.17428527,-121.67773193,0.00000000,
4.2120,-1.2709,-0.1706,-0.0778,-3.1428,-4.6078,-1.6778,2.4086,1.2123,-1.1867,848.7124,60.1200,-4.2000,-1.9200,155.241,7.631,93.501,49.17428527,-121.67773193,0.00000000,
4.2310,-0.3928,0.1954,-0.7511,-3.1428,-4.6078,-1.6778,2.4086,1.2123,-1.1867,848.7124,60.1200,-4.2000,-1.9200,88.113,-12.981,152.388,49.17428527,-121.67773193,0.00000000,
4.2350,-0.3928,0.1954,-0.7511,-3.1428,-4.6078,-1.6778,2.4086,1.2123,-1.1867,848.7124,61.0200,-7.6200,0.8400,90.966,-12.981,152.388,49.17428527,-121.67773193,0.00000000,
4.2380,-0.3928,0.1954,-0.7511,-3.1428,-4.6078,-1.6778,0.6477,0.3238,-2.2882,848.7124,61.0200,-7.6200,0.8400,90.966,-12.981,152.388,49.17428527,-121.67773193,0.00000000,
4.2490,-0.3928,0.1954,-0.7511,5.5948,-0.3498,-6.0037,0.6477,0.3238,-2.2882,848.7124,61.0200,-7.6200,0.8400,90.966,-12.981,152.388,49.17428527,-121.67773193,0.00000000,
4.2920,-0.8580,0.0356,-0.0294,5.5948,-0.3498,-6.0037,0.6477,0.3238,-2.2882,848.7124,61.0200,-7.6200,0.8400,166.205,-2.375,91.961,49.17428527,-121.67773193,0.00000000,
4.2960,-0.8580,0.0356,-0.0294,5.5948,-0.3498,-6.0037,0.6477,0.3238,-2.2882,848.7124,61.9800,-10.8600,3.7800,-168.682,-2.375,91.961,49.17428527,-121.67773193,0.00000000,
4.3010,-0.8580,0.0356,-0.0294,5.5948,-0.3498,-6.0037,-0.9225,-2.0006,-2.4128,848.7124,61.9800,-10.8600,3.7800,-168.682,-2.375,91.961,49.17428527,-121.67773193,0.00000000,
4.3190,-0.8580,0.0356,-0.0294,1.3450,-0.4429,-0.9306,-0.9225,-2.0006,-2.4128,848.7124,61.9800,-10.8600,3.7800,-168.682,-2.375,91.961,49.17428527,-121.67773193,0.00000000,
4.3530,-1.2093,-0.0020,-0.1628,1.3450,-0.4429,-0.9306,-0.9225,-2.0006,-2.4128,848.7124,61.9800,-10.8600,3.7800,157.586,0.095,97.666,49.17428527,-121.67773193,0.00000000,
4.3590,-1.2093,-0.0020,-0.1628,1.3450,-0.4429,-0.9306,-0.9225,-2.0006,-2.4128,848.7124,63.1800,-13.3200,6.4200,171.255,0.095,97.666,49.17428527,-121.67773193,0.00000000,
4.3670,-1.2093,-0.0020,-0.1628,1.3450,-0.4429,-0.9306,-2.2030,-3.4898,-2.3723,848.7124,63.1800,-13.3200,6.4200,171.255,0.095,97.666,49.17428527,-121.67773193,0.00000000,
4.3760,-1.2093,-0.0020,-0.1628,-2.1414,0.9393,-2.5786,-2.2030,-3.4898,-2.3723,848.7124,63.1800,-13.3200,6.4200,171.255,0.095,97.666,49.17428527,-121.67773193,0.00000000,
4.3870,-1.2093,-0.0020,-0.1628,-2.1414,0.9393,-2.5786,-2.2030,-3.4898,-2.3723,848.8999,63.1800,-13.3200,6.4200,171.255,0.095,97.666,49.17428527,-121.67773193,0.00000000,
4.3880,-1.2093,-0.0020,-0.1628,-2.1414,0.9393,-2.5786,-2.2030,-3.4898,-2.3723,848.8999,63.1800,-13.3200,6.4200,171.255,0.095,97.666,49.17428527,-121.67773193,0.00000000,
4.4070,-0.8321,-0.1940,0.8438,-2.1414,0.9393,-2.5786,-2.2030,-3.4898,-2.3723,848.8999,63.1800,-13.3200,6.4200,-111.579,9.299,44.601,49.17428527,-121.67773193,0.00000000,
4.4090,-0.8321,-0.1940,0.8438,-2.1414,0.9393,-2.5786,-2.2030,-3.4898,-2.3723,848.8999,64.4400,-15.0600,8.7600,-112.135,9.299,44.601,49.17428527,-121.67773193,0.00000000,
4.4120,-0.8321,-0.1940,0.8438,-2.1414,0.9393,-2.5786,-2.2626,-3.3822,-0.9396,848.8999,64.4400,-15.0600,8.7600,-112.135,9.299,44.601,49.17428527,-121.67773193,0.00000000,
4.4280,-0.8321,-0.1940,0.8438,0.8022,-0.0351,4.7390,-2.2626,-3.3822,-0.9396,848.8999,64.4400,-15.0600,8.7600,-112.135,9.299,44.601,49.17428527,-121.67773193,0.00000000,
4.4720,-0.2091,-0.1994,0.1411,0.8022,-0.0351,4.7390,-2.2626,-3.3822,-0.9396,848.8999,64.4400,-15.0600,8.7600,-134.049,38.322,55.983,49.17428527,-121.67773193,0.00000000,
4.4790,-0.2091,-0.1994,0.1411,0.8022,-0.0351,4.7390,-2.2626,-3.3822,-0.9396,848.8999,65.5200,-16.4400,10.3800,-133.516,38.322,55.983,49.17428527,-121.67773193,0.00000000,
4.4800,-0.2091,-0.1994,0.1411,0.8022,-0.0351,4.7390,-0.1864,-3.0712,-1.5287,848.8999,65.5200,-16.4400,10.3800,-133.516,38.322,55.983,49.17428527,-121.67773193,0.00000000,
4.4870,-0.2091,-0.1994,0.1411,6.7493,-0.0447,-2.5033,-0.1864,-3.0712,-1.5287,848.8999,65.5200,-16.4400,10.3800,-133.516,38.322,55.983,49.17428527,-121.67773193,0.00000000,
4.5350,-0.2795,-0.3636,1.0754,6.7493,-0.0447,-2.5033,-0.1864,-3.0712,-1.5287,848.8999,65.5200,-16.4400,10.3800,-104.947,18.120,14.569,49.17428527,-121.67773193,0.00000000,
4.5430,-0.2795,-0.3636,1.0754,6.7493,-0.0447,-2.5033,-0.1864,-3.0712,-1.5287,848.8999,66.3000,-17.2200,11.4000,-105.127,18.120,14.569,49.17428527,-121.67773193,0.00000000,
4.5490,-0.2795,-0.3636,1.0754,6.7493,-0.0447,-2.5033,-3.0935,-1.1356,-0.4858,848.8999,66.3000,-17.2200,11.4000,-105.127,18.120,14.569,49.17428527,-121.67773193,0.00000000,
4.5550,-0.2795,-0.3636,1.0754,4.7994,-0.2158,5.2342,-3.0935,-1.1356,-0.4858,848.8999,66.3000,-17.2200,11.4000,-105.127,18.120,14.569,49.17428527,-121.67773193,0.00000000,
4.5670,-0.2795,-0.3636,1.0754,4.7994,-0.2158,5.2342,-3.0935,-1.1356,-0.4858,848.8796,66.3000,-17.2200,11.4000,-105.127,18.120,14.569,49.17428527,-121.67773193,0.00000000,
4.5690,-0.2795,-0.3636,1.0754,4.7994,-0.2158,5.2342,-3.0935,-1.1356,-0.4858,848.8796,66.3000,-17.2200,11.4000,-105.127,18.120,14.569,49.17428527,-121.67773193,0.00000000,
4.5880,-1.0080,-0.3074,0.5951,4.7994,-0.2158,5.2342,-3.0935,-1.1356,-0.4858,848.8796,66.3000,-17.2200,11.4000,-124.297,14.714,59.445,49.17428527,-121.67773193,0.00000000,
4.5900,-1.0080,-0.3074,0.5951,4.7994,-0.2158,5.2342,-3.0935,-1.1356,-0.4858,848.8796,66.7200,-17.2200,11.8200,-123.981,14.714,59.445,49.17428527,-121.67773193,0.00000000,
4.5920,-1.0080,-0.3074,0.5951,4.7994,-0.2158,5.2342,-1.1697,-1.2890,-1.2059,848.8796,66.7200,-17.2200,11.8200,-123.981,14.714,59.445,49.17428527,-121.67773193,0.00000000,
4.6070,-1.0080,-0.3074,0.5951,-2.7558,1.2444,0.6051,-1.1697,-1.2890,-1.2059,848.8796,66.7200,-17.2200,11.8200,-123.981,14.714,59.445,49.17428527,-121.67773193,0.00000000,
4.6510,-0.5297,-0.5302,0.9562,-2.7558,1.2444,0.6051,-1.1697,-1.2890,-1.2059,848.8796,66.7200,-17.2200,11.8200,-111.380,25.877,28.984,49.17428527,-121.67773193,0.00000000,
4.6550,-0.5297,-0.5302,0.9562,-2.7558,1.2444,0.6051,-1.1697,-1.2890,-1.2059,848.8796,66.5400,-16.1400,11.5200,-110.772,25.877,28.984,49.17428527,-121.67773193,0.00000000,
4.6600,-0.5297,-0.5302,0.9562,-2.7558,1.2444,0.6051,0.7723,-0.5582,-0.8575,848.8796,66.5400,-16.1400,11.5200,-110.772,25.877,28.984,49.17428527,-121.67773193,0.00000000,
4.6820,-0.5297,-0.5302,0.9562,1.2543,-0.5596,3.6138,0.7723,-0.5582,-0.8575,848.8796,66.5400,-16.1400,11.5200,-110.772,25.877,28.984,49.17428527,-121.67773193,0.00000000,
4.7070,-0.2199,-0.3846,0.4910,1.2543,-0.5596,3.6138,0.7723,-0.5582,-0.8575,848.8796,66.5400,-16.1400,11.5200,-109.234,35.561,24.124,49.17428527,-121.67773193,0.00000000,
4.7090,-0.2199,-0.3846,0.4910,1.2543,-0.5596,3.6138,0.7723,-0.5582,-0.8575,848.8796,66.1200,-14.3400,10.6800,-108.549,35.561,24.124,49.17428527,-121.67773193,0.00000000,
4.7110,-0.2199,-0.3846,0.4910,1.2543,-0.5596,3.6138,0.2972,-0.1587,-0.1619,848.8796,66.1200,-14.3400,10.6800,-108.549,35.561,24.124,49.17428527,-121.67773193,0.00000000,
4.7280,-0.2199,-0.3846,0.4910,4.0720,1.0627,-1.0236,0.2972,-0.1587,-0.1619,848.8796,66.1200,-14.3400,10.6800,-108.549,35.561,24.124,49.17428527,-121.67773193,0.00000000,
4.7480,-0.2199,-0.3846,0.4910,4.0720,1.0627,-1.0236,0.2972,-0.1587,-0.1619,848.8989,66.1200,-14.3400,10.6800,-108.549,35.561,24.124,49.17428527,-121.67773193,0.00000000,
4.7510,-0.2199,-0.3846,0.4910,4.0720,1.0627,-1.0236,0.2972,-0.1587,-0.1619,848.8989,66.1200,-14.3400,10.6800,-108.549,35.561,24.124,49.17428527,-121.67773193,0.00000000,
4.7680,-0.7407,-0.6875,1.2019,4.0720,1.0627,-1.0236,0.2972,-0.1587,-0.1619,848.8989,66.1200,-14.3400,10.6800,-111.275,25.965,31.645,49.17428527,-121.67773193,0.00000000,
4.7730,-0.7407,-0.6875,1.2019,4.0720,1.0627,-1.0236,0.2972,-0.1587,-0.1619,848.8989,65.7600,-12.1200,9.9000,-110.038,25.965,31.645,49.17428527,-121.67773193,0.00000000,
4.7770,-0.7407,-0.6875,1.2019,4.0720,1.0627,-1.0236,0.2312,-0.9598,-1.1484,848.8989,65.7600,-12.1200,9.9000,-110.038,25.965,31.645,49.17428527,-121.67773193,0.00000000,
4.7890,-0.7407,-0.6875,1.2019,-1.3515,-1.4618,5.9969,0.2312,-0.9598,-1.1484,848.8989,65.7600,-12.1200,9.9000,-110.038,25.965,31.645,49.17428527,-121.67773193,0.00000000,
4.8350,-0.7437,-0.1173,0.5228,-1.3515,-1.4618,5.9969,0.2312,-0.9598,-1.1484,848.8989,65.7600,-12.1200,9.9000,-111.599,7.355,54.895,49.17428527,-121.67773193,0.00000000,
4.8390,-0.7437,-0.1173,0.5228,-1.3515,-1.4618,5.9969,0.2312,-0.9598,-1.1484,848.8989,65.1000,-9.6000,8.8800,-109.335,7.355,54.895,49.17428527,-121.67773193,0.00000000,
4.8420,-0.7437,-0.1173,0.5228,-1.3515,-1.4618,5.9969,0.8149,0.2269,-0.5145,848.8989,65.1000,-9.6000,8.8800,-109.335,7.355,54.895,49.17428527,-121.67773193,0.00000000,
4.8530,-0.7437,-0.1173,0.5228,-1.7001,4.1710,-0.9296,0.8149,0.2269,-0.5145,848.8989,65.1000,-9.6000,8.8800,-109.335,7.355,54.895,49.17428527,-121.67773193,0.00000000,
4.8880,-0.5326,-0.9714,0.7040,-1.7001,4.1710,-0.9296,0.8149,0.2269,-0.5145,848.8989,65.1000,-9.6000,8.8800,-117.865,47.737,37.107,49.17428527,-121.67773193,0.00000000,
4.8950,-0.5326,-0.9714,0.7040,-1.7001,4.1710,-0.9296,0.8149,0.2269,-0.5145,848.8989,64.2000,-6.7200,6.8400,-117.781,47.737,37.107,49.17428527,-121.67773193,0.00000000,
4.8990,-0.5326,-0.9714,0.7040,-1.7001,4.1710,-0.9296,-0.3505,-0.1150,-0.1864,848.8989,64.2000,-6.7200,6.8400,-117.781,47.737,37.107,49.17428527,-121.67773193,0.00000000,
4.9090,-0.5326,-0.9714,0.7040,0.0831,-3.9133,0.8481,-0.3505,-0.1150,-0.1864,848.8989,64.2000,-6.7200,6.8400,-117.781,47.737,37.107,49.17428527,-121.67773193,0.00000000,
4.9250,-0.5326,-0.9714,0.7040,0.0831,-3.9133,0.8481,-0.3505,-0.1150,-0.1864,848.9275,64.2000,-6.7200,6.8400,-117.781,47.737,37.107,49.17428527,-121.67773193,0.00000000,
4.9270,-0.5326,-0.9714,0.7040,0.0831,-3.9133,0.8481,-0.3505,-0.1150,-0.1864,848.9275,64.2000,-6.7200,6.8400,-117.781,47.737,37.107,49.17428527,-121.67773193,0.00000000,
4.9460,-0.3591,-0.4916,0.5452,0.0831,-3.9133,0.8481,-0.3505,-0.1150,-0.1864,848.9275,64.2000,-6.7200,6.8400,-111.994,36.979,33.372,49.17428527,-121.67773193,0.00000000,
4.9530,-0.3591,-0.4916,0.5452,0.0831,-3.9133,0.8481,-0.3505,-0.1150,-0.1864,848.9275,63.1200,-3.5400,3.9600,-111.592,36.979,33.372,49.17428527,-121.67773193,0.00000000,
4.9560,-0.3591,-0.4916,0.5452,0.0831,-3.9133,0.8481,-0.7489,1.3529,-0.1715,848.9275,63.1200,-3.5400,3.9600,-111.592,36.979,33.372,49.17428527,-121.67773193,0.00000000,
4.9680,-0.3591,-0.4916,0.5452,1.6727,1.0979,-0.5062,-0.7489,1.3529,-0.1715,848.9275,63.1200,-3.5400,3.9600,-111.592,36.979,33.372,49.17428527,-121.67773193,0.00000000,
5.0060,-0.5365,-0.6191,0.4832,1.6727,1.0979,-0.5062,-0.7489,1.3529,-0.1715,848.9275,63.1200,-3.5400,3.9600,-124.877,40.614,47.993,49.17428527,-121.67773193,0.00000000,
5.0080,-0.5365,-0.6191,0.4832,1.6727,1.0979,-0.5062,-0.7489,1.3529,-0.1715,848.9275,61.9200,-0.0600,1.0200,-125.006,40.614,47.993,49.17428527,-121.67773193,0.00000000,
5.0090,-0.5365,-0.6191,0.4832,1.6727,1.0979,-0.5062,-0.8064,1.3646,-0.8458,848.9275,61.9200,-0.0600,1.0200,-125.006,40.614,47.993,49.17428527,-121.67773193,0.00000000,
5.0260,-0.5365,-0.6191,0.4832,0.4040,0.1620,-0.2956,-0.8064,1.3646,-0.8458,848.9275,61.9200,-0.0600,1.0200,-125.006,40.614,47.993,49.17428527,-121.67773193,0.00000000,
5.0720,-0.3972,-0.7071,0.0214,0.4040,0.1620,-0.2956,-0.8064,1.3646,-0.8458,848.9275,61.9200,-0.0600,1.0200,-175.378,60.637,86.911,49.17428527,-121.67773193,0.00000000,
5.0780,-0.3972,-0.7071,0.0214,0.4040,0.1620,-0.2956,-0.8064,1.3646,-0.8458,848.9275,60.7800,3.8400,-1.8000,-178.343,60.637,86.911,49.17428527,-121.67773193,0.00000000,
5.0840,-0.3972,-0.7071,0.0214,0.4040,0.1620,-0.2956,-0.9044,2.6536,1.4924,848.9275,60.7800,3.8400,-1.8000,-178.343,60.637,86.911,49.17428527,-121.67773193,0.00000000,
5.0910,-0.3972,-0.7071,0.0214,2.3782,-0.4526,-3.6491,-0.9044,2.6536,1.4924,848.9275,60.7800,3.8400,-1.8000,-178.343,60.637,86.911,49.17428527,-121.67773193,0.00000000,
5.1050,-0.3972,-0.7071,0.0214,2.3782,-0.4526,-3.6491,-0.9044,2.6536,1.4924,848.9202,60.7800,3.8400,-1.8000,-178.343,60.637,86.911,49.17428527,-121.67773193,0.00000000,
5.1070,-0.3972,-0.7071,0.0214,2.3782,-0.4526,-3.6491,-0.9044,2.6536,1.4924,848.9202,60.7800,3.8400,-1.8000,-178.343,60.637,86.911,49.17428527,-121.67773193,0.00000000,
5.1250,-1.3100,-0.8874,0.0219,2.3782,-0.4526,-3.6491,-0.9044,2.6536,1.4924,848.9202,60.7800,3.8400,-1.8000,178.550,34.110,89.041,49.17428527,-121.67773193,0.00000000,
5.1270,-1.3100,-0.8874,0.0219,2.3782,-0.4526,-3.6491,-0.9044,2.6536,1.4924,848.9202,59.7000,7.9800,-4.3200,172.966,34.110,89.041,49.17428527,-121.67773193,0.00000000,
5.1290,-1.3100,-0.8874,0.0219,2.3782,-0.4526,-3.6491,1.6959,2.0911,-1.3582,848.9202,59.7000,7.9800,-4.3200,172.966,34.110,89.041,49.17428527,-121.67773193,0.00000000,
5.1480,-1.3100,-0.8874,0.0219,-5.8057,-3.0681,-3.6637,1.6959,2.0911,-1.3582,848.9202,59.7000,7.9800,-4.3200,172.966,34.110,89.041,49.17428527,-121.67773193,0.00000000,
5.1880,-0.8477,-0.5629,0.6141,-5.8057,-3.0681,-3.6637,1.6959,2.0911,-1.3582,848.9202,59.7000,7.9800,-4.3200,-118.435,28.270,54.080,49.17428527,-121.67773193,0.00000000,
5.1910,-0.8477,-0.5629,0.6141,-5.8057,-3.0681,-3.6637,1.6959,2.0911,-1.3582,848.9202,58.5600,12.0600,-6.7800,-115.429,28.270,54.080,49.17428527,-121.67773193,0.00000000,
5.1940,-0.8477,-0.5629,0.6141,-5.8057,-3.0681,-3.6637,0.0405,-0.8341,-0.1981,848.9202,58.5600,12.0600,-6.7800,-115.429,28.270,54.080,49.17428527,-121.67773193,0.00000000,
5.2090,-0.8477,-0.5629,0.6141,-1.2400,-0.2958,1.6645,0.0405,-0.8341,-0.1981,848.9202,58.5600,12.0600,-6.7800,-115.429,28.270,54.080,49.17428527,-121.67773193,0.00000000,
5.2450,-0.5687,-0.5375,0.2648,-1.2400,-0.2958,1.6645,0.0405,-0.8341,-0.1981,848.9202,58.5600,12.0600,-6.7800,-145.726,40.591,65.037,49.17428527,-121.67773193,0.00000000,
5.2470,-0.5687,-0.5375,0.2648,-1.2400,-0.2958,1.6645,0.0405,-0.8341,-0.1981,848.9202,57.3000,15.9000,-9.3600,-147.134,40.591,65.037,49.17428527,-121.67773193,0.00000000,
5.2490,-0.5687,-0.5375,0.2648,-1.2400,-0.2958,1.6645,0.2152,-0.1097,-0.1502,848.9202,57.3000,15.9000,-9.3600,-147.134,40.591,65.037,49.17428527,-121.67773193,0.00000000,
5.2650,-0.5687,-0.5375,0.2648,1.5183,0.2160,-1.3805,0.2152,-0.1097,-0.1502,848.9202,57.3000,15.9000,-9.3600,-147.134,40.591,65.037,49.17428527,-121.67773193,0.00000000,
5.2860,-0.5687,-0.5375,0.2648,1.5183,0.2160,-1.3805,0.2152,-0.1097,-0.1502,848.9299,57.3000,15.9000,-9.3600,-147.134,40.591,65.037,49.17428527,-121.67773193,0.00000000,
5.2910,-0.5687,-0.5375,0.2648,1.5183,0.2160,-1.3805,0.2152,-0.1097,-0.1502,848.9299,57.3000,15.9000,-9.3600,-147.134,40.591,65.037,49.17428527,-121.67773193,0.00000000,
5.3080,-0.7613,-0.8595,0.9957,1.5183,0.2160,-1.3805,0.2152,-0.1097,-0.1502,848.9299,57.3000,15.9000,-9.3600,-105.135,34.441,37.399,49.17428527,-121.67773193,0.00000000,
5.3160,-0.7613,-0.8595,0.9957,1.5183,0.2160,-1.3805,0.2152,-0.1097,-0.1502,848.9299,55.6200,18.9000,-11.7000,-103.314,34.441,37.399,49.17428527,-121.67773193,0.00000000,
5.3200,-0.7613,-0.8595,0.9957,1.5183,0.2160,-1.3805,-0.5497,-0.1438,0.0288,848.9299,55.6200,18.9000,-11.7000,-103.314,34.441,37.399,49.17428527,-121.67773193,0.00000000,
5.3290,-0.7613,-0.8595,0.9957,-0.6681,-3.0793,5.1239,-0.5497,-0.1438,0.0288,848.9299,55.6200,18.9000,-11.7000,-103.314,34.441,37.399,49.17428527,-121.67773193,0.00000000,
5.3650,-0.6997,-0.6768,0.5374,-0.6681,-3.0793,5.1239,-0.5497,-0.1438,0.0288,848.9299,55.6200,18.9000,-11.7000,-123.349,37.492,52.473,49.17428527,-121.67773193,0.00000000,
5.3660,-0.6997,-0.6768,0.5374,-0.6681,-3.0793,5.1239,-0.5497,-0.1438,0.0288,848.9299,53.6400,21.1800,-13.7400,-123.072,37.492,52.473,49.17428527,-121.67773193,0.00000000,
5.3710,-0.6997,-0.6768,0.5374,-0.6681,-3.0793,5.1239,-0.3324,0.2653,0.1939,848.9299,53.6400,21.1800,-13.7400,-123.072,37.492,52.473,49.17428527,-121.67773193,0.00000000,
5.3850,-0.6997,-0.6768,0.5374,0.1093,-1.1657,1.0530,-0.3324,0.2653,0.1939,848.9299,53.6400,21.1800,-13.7400,-123.072,37.492,52.473,49.17428527,-121.67773193,0.00000000,
5.4260,-0.7994,-0.5087,0.6161,0.1093,-1.1657,1.0530,-0.3324,0.2653,0.1939,848.9299,53.6400,21.1800,-13.7400,-100.332,26.751,52.378,49.17428527,-121.67773193,0.00000000,
5.4280,-0.7994,-0.5087,0.6161,0.1093,-1.1657,1.0530,-0.3324,0.2653,0.1939,848.9299,51.7800,23.3400,-15.2400,-95.280,26.751,52.378,49.17428527,-121.67773193,0.00000000,
5.4330,-0.7994,-0.5087,0.6161,0.1093,-1.1657,1.0530,-0.0458,-0.1800,0.2844,848.9299,51.7800,23.3400,-15.2400,-95.280,26.751,52.378,49.17428527,-121.67773193,0.00000000,
5.4450,-0.7994,-0.5087,0.6161,-0.6334,0.3535,2.0600,-0.0458,-0.1800,0.2844,848.9299,51.7800,23.3400,-15.2400,-95.280,26.751,52.378,49.17428527,-121.67773193,0.00000000,
5.4650,-0.7994,-0.5087,0.6161,-0.6334,0.3535,2.0600,-0.0458,-0.1800,0.2844,848.8306,51.7800,23.3400,-15.2400,-95.280,26.751,52.378,49.17428527,-121.67773193,0.00000000,
5.4680,-0.7994,-0.5087,0.6161,-0.6334,0.3535,2.0600,-0.0458,-0.1800,0.2844,848.8306,51.7800,23.3400,-15.2400,-95.280,26.751,52.378,49.17428527,-121.67773193,0.00000000,
5.4850,-0.7393,-0.6172,0.4412,-0.6334,0.3535,2.0600,-0.0458,-0.1800,0.2844,848.8306,51.7800,23.3400,-15.2400,-130.508,35.637,59.174,49.17428527,-121.67773193,0.00000000,
5.4880,-0.7393,-0.6172,0.4412,-0.6334,0.3535,2.0600,-0.0458,-0.1800,0.2844,848.8306,49.9800,25.1400,-16.2000,-128.812,35.637,59.174,49.17428527,-121.67773193,0.00000000,
5.4930,-0.7393,-0.6172,0.4412,-0.6334,0.3535,2.0600,-0.1353,-0.1364,0.4911,848.8306,49.9800,25.1400,-16.2000,-128.812,35.637,59.174,49.17428527,-121.67773193,0.00000000,
5.5060,-0.7393,-0.6172,0.4412,0.0077,-0.7560,0.3787,-0.1353,-0.1364,0.4911,848.8306,49.9800,25.1400,-16.2000,-128.812,35.637,59.174,49.17428527,-121.67773193,0.00000000,
5.5480,-0.6777,-0.6157,0.4065,0.0077,-0.7560,0.3787,-0.1353,-0.1364,0.4911,848.8306,49.9800,25.1400,-16.2000,-134.557,37.923,59.046,49.17428527,-121.67773193,0.00000000,
5.5550,-0.6777,-0.6157,0.4065,0.0077,-0.7560,0.3787,-0.1353,-0.1364,0.4911,848.8306,48.3600,26.5200,-16.6200,-132.766,37.923,59.046,49.17428527,-121.67773193,0.00000000,
5.5620,-0.6777,-0.6157,0.4065,0.0077,-0.7560,0.3787,-0.0692,-0.0937,0.1481,848.8306,48.3600,26.5200,-16.6200,-132.766,37.923,59.046,49.17428527,-121.67773193,0.00000000,
5.5710,-0.6777,-0.6157,0.4065,0.5848,-0.7035,0.0417,-0.0692,-0.0937,0.1481,848.8306,48.3600,26.5200,-16.6200,-132.766,37.923,59.046,49.17428527,-121.67773193,0.00000000,
5.6050,-0.7222,-0.5737,0.3728,0.5848,-0.7035,0.0417,-0.0692,-0.0937,0.1481,848.8306,48.3600,26.5200,-16.6200,-135.388,35.219,62.699,49.17428527,-121.67773193,0.00000000,
5.6060,-0.7222,-0.5737,0.3728,0.5848,-0.7035,0.0417,-0.0692,-0.0937,0.1481,848.8306,46.9200,27.4200,-16.9200,-133.338,35.219,62.699,49.17428527,-121.67773193,0.00000000,
5.6080,-0.7222,-0.5737,0.3728,0.5848,-0.7035,0.0417,-0.0575,0.0437,-0.0405,848.8306,46.9200,27.4200,-16.9200,-133.338,35.219,62.699,49.17428527,-121.67773193,0.00000000,
5.6250,-0.7222,-0.5737,0.3728,0.2131,-0.3303,-0.2223,-0.0575,0.0437,-0.0405,848.8306,46.9200,27.4200,-16.9200,-133.338,35.219,62.699,49.17428527,-121.67773193,0.00000000,
5.6470,-0.7222,-0.5737,0.3728,0.2131,-0.3303,-0.2223,-0.0575,0.0437,-0.0405,848.9001,46.9200,27.4200,-16.9200,-133.338,35.219,62.699,49.17428527,-121.67773193,0.00000000,
5.6500,-0.7222,-0.5737,0.3728,0.2131,-0.3303,-0.2223,-0.0575,0.0437,-0.0405,848.9001,46.9200,27.4200,-16.9200,-133.338,35.219,62.699,49.17428527,-121.67773193,0.00000000,
5.6680,-0.7373,-0.5957,0.3703,0.2131,-0.3303,-0.2223,-0.0575,0.0437,-0.0405,848.9001,46.9200,27.4200,-16.9200,-138.690,35.828,63.333,49.17428527,-121.67773193,0.00000000,
5.6740,-0.7373,-0.5957,0.3703,0.2131,-0.3303,-0.2223,-0.0575,0.0437,-0.0405,848.9001,45.6000,28.0800,-17.1000,-137.095,35.828,63.333,49.17428527,-121.67773193,0.00000000,
5.6780,-0.7373,-0.5957,0.3703,0.2131,-0.3303,-0.2223,-0.1502,-0.0714,-0.0458,848.9001,45.6000,28.0800,-17.1000,-137.095,35.828,63.333,49.17428527,-121.67773193,0.00000000,
5.6880,-0.7373,-0.5957,0.3703,0.0253,-0.4525,-0.1911,-0.1502,-0.0714,-0.0458,848.9001,45.6000,28.0800,-17.1000,-137.095,35.828,63.333,49.17428527,-121.67773193,0.00000000,
5.7240,-0.6860,-0.5903,0.4133,0.0253,-0.4525,-0.1911,-0.1502,-0.0714,-0.0458,848.9001,45.6000,28.0800,-17.1000,-123.164,36.392,58.932,49.17428527,-121.67773193,0.00000000,
5.7260,-0.6860,-0.5903,0.4133,0.0253,-0.4525,-0.1911,-0.1502,-0.0714,-0.0458,848.9001,44.3400,28.5000,-17.2800,-121.143,36.392,58.932,49.17428527,-121.67773193,0.00000000,
5.7280,-0.6860,-0.5903,0.4133,0.0253,-0.4525,-0.1911,-0.2844,-0.1694,-0.0309,848.9001,44.3400,28.5000,-17.2800,-121.143,36.392,58.932,49.17428527,-121.67773193,0.00000000,
5.7460,-0.6860,-0.5903,0.4133,0.4510,-0.2933,0.2365,-0.2844,-0.1694,-0.0309,848.9001,44.3400,28.5000,-17.2800,-121.143,36.392,58.932,49.17428527,-121.67773193,0.00000000,
5.7850,-0.5951,-0.5673,0.3972,0.4510,-0.2933,0.2365,-0.2844,-0.1694,-0.0309,848.9001,44.3400,28.5000,-17.2800,-122.575,38.412,56.281,49.17428527,-121.67773193,0.00000000,
5.7870,-0.5951,-0.5673,0.3972,0.4510,-0.2933,0.2365,-0.2844,-0.1694,-0.0309,848.9001,43.3200,28.6200,-17.2800,-121.471,38.412,56.281,49.17428527,-121.67773193,0.00000000,
5.7910,-0.5951,-0.5673,0.3972,0.4510,-0.2933,0.2365,-0.3537,-0.0245,0.1289,848.9001,43.3200,28.6200,-17.2800,-121.471,38.412,56.281,49.17428527,-121.67773193,0.00000000,
5.8040,-0.5951,-0.5673,0.3972,1.2767,0.0460,0.1233,-0.3537,-0.0245,0.1289,848.9001,43.3200,28.6200,-17.2800,-121.471,38.412,56.281,49.17428527,-121.67773193,0.00000000,
5.8230,-0.5951,-0.5673,0.3972,1.2767,0.0460,0.1233,-0.3537,-0.0245,0.1289,848.7822,43.3200,28.6200,-17.2800,-121.471,38.412,56.281,49.17428527,-121.67773193,0.00000000,
5.8240,-0.5951,-0.5673,0.3972,1.2767,0.0460,0.1233,-0.3537,-0.0245,0.1289,848.7822,43.3200,28.6200,-17.2800,-121.471,38.412,56.281,49.17428527,-121.67773193,0.00000000,
5.8430,-0.6660,-0.6030,0.3684,1.2767,0.0460,0.1233,-0.3537,-0.0245,0.1289,848.7822,43.3200,28.6200,-17.2800,-137.158,38.391,61.053,49.17428527,-121.67773193,0.00000000,
5.8440,-0.6660,-0.6030,0.3684,1.2767,0.0460,0.1233,-0.3537,-0.0245,0.1289,848.7822,42.5400,28.6200,-17.2200,-136.715,38.391,61.053,49.17428527,-121.67773193,0.00000000,
5.8450,-0.6660,-0.6030,0.3684,1.2767,0.0460,0.1233,-0.3388,0.3750,0.2748,848.7822,42.5400,28.6200,-17.2200,-136.715,38.391,61.053,49.17428527,-121.67773193,0.00000000,
5.8630,-0.6660,-0.6030,0.3684,0.6874,-0.3392,-0.0097,-0.3388,0.3750,0.2748,848.7822,42.5400,28.6200,-17.2200,-136.715,38.391,61.053,49.17428527,-121.67773193,0.00000000,
5.9050,-0.6660,-0.6030,0.3684,0.6874,-0.3392,-0.0097,-0.3388,0.3750,0.2748,848.7822,42.0000,28.3800,-16.8600,-135.376,38.391,61.053,49.17428527,-121.67773193,0.00000000,
5.9090,-0.6660,-0.6030,0.3684,0.6874,-0.3392,-0.0097,0.3803,-0.2077,-0.0085,848.7822,42.0000,28.3800,-16.8600,-135.376,38.391,61.053,49.17428527,-121.67773193,0.00000000,
5.9140,-0.7476,-0.6568,0.5140,0.6874,-0.3392,-0.0097,0.3803,-0.2077,-0.0085,848.7822,42.0000,28.3800,-16.8600,-106.367,35.902,55.491,49.17428527,-121.67773193,0.00000000,
5.9230,-0.7476,-0.6568,0.5140,-0.0451,-0.8165,1.6348,0.3803,-0.2077,-0.0085,848.7822,42.0000,28.3800,-16.8600,-106.367,35.902,55.491,49.17428527,-121.67773193,0.00000000,
5.9690,-0.7285,-0.5678,0.4260,-0.0451,-0.8165,1.6348,0.3803,-0.2077,-0.0085,848.7822,42.0000,28.3800,-16.8600,-102.259,33.934,59.683,49.17428527,-121.67773193,0.00000000,
5.9860,-0.7285,-0.5678,0.4260,-0.0451,-0.8165,1.6348,0.3803,-0.2077,-0.0085,848.7822,41.6400,28.0800,-16.4400,-101.598,33.934,59.683,49.17428527,-121.67773193,0.00000000,
5.9910,-0.7285,-0.5678,0.4260,-0.0451,-0.8165,1.6348,0.1971,0.0533,-0.0714,848.7822,41.6400,28.0800,-16.4400,-101.598,33.934,59.683,49.17428527,-121.67773193,0.00000000,
5.9960,-0.7285,-0.5678,0.4260,0.1426,0.0547,0.7745,0.1971,0.0533,-0.0714,848.7822,41.6400,28.0800,-16.4400,-101.598,33.934,59.683,49.17428527,-121.67773193,0.00000000,
6.0040,-0.7285,-0.5678,0.4260,0.1426,0.0547,0.7745,0.1971,0.0533,-0.0714,848.7144,41.6400,28.0800,-16.4400,-101.598,33.934,59.683,49.17428527,-121.67773193,0.00000000,
6.0070,-0.7285,-0.5678,0.4260,0.1426,0.0547,0.7745,0.1971,0.0533,-0.0714,848.7144,41.6400,28.0800,-16.4400,-101.598,33.934,59.683,49.17428527,-121.67773193,0.00000000,
6.0230,-0.7236,-0.5068,0.3894,0.1426,0.0547,0.7745,0.1971,0.0533,-0.0714,848.7144,41.6400,28.0800,-16.4400,-83.868,31.661,61.717,49.17428527,-121.67773193,0.00000000,
6.0250,-0.7236,-0.5068,0.3894,0.1426,0.0547,0.7745,0.1971,0.0533,-0.0714,848.7144,41.2800,27.5400,-16.0200,-86.059,31.661,61.717,49.17428527,-121.67773193,0.00000000,
6.0270,-0.7236,-0.5068,0.3894,0.1426,0.0547,0.7745,0.1971,-0.1065,0.0245,848.7144,41.2800,27.5400,-16.0200,-86.059,31.661,61.717,49.17428527,-121.67773193,0.00000000,
6.0450,-0.7236,-0.5068,0.3894,0.1752,0.6330,0.3497,0.1971,-0.1065,0.0245,848.7144,41.2800,27.5400,-16.0200,-86.059,31.661,61.717,49.17428527,-121.67773193,0.00000000,
6.0880,-0.7393,-0.5370,0.4045,0.1752,0.6330,0.3497,0.1971,-0.1065,0.0245,848.7144,41.2800,27.5400,-16.0200,-93.677,32.509,61.314,49.17428527,-121.67773193,0.00000000,
6.1030,-0.7393,-0.5370,0.4045,0.1752,0.6330,0.3497,0.1971,-0.1065,0.0245,848.7144,40.9200,26.8800,-15.7800,-96.836,32.509,61.314,49.17428527,-121.67773193,0.00000000,
6.1110,-0.7393,-0.5370,0.4045,0.1752,0.6330,0.3497,-0.0586,-0.1076,-0.0064,848.7144,40.9200,26.8800,-15.7800,-96.836,32.509,61.314,49.17428527,-121.67773193,0.00000000,
6.1190,-0.7393,-0.5370,0.4045,0.0193,0.3296,0.4822,-0.0586,-0.1076,-0.0064,848.7144,40.9200,26.8800,-15.7800,-96.836,32.509,61.314,49.17428527,-121.67773193,0.00000000,
6.1440,-0.8135,-0.6167,0.3327,0.0193,0.3296,0.4822,-0.0586,-0.1076,-0.0064,848.7144,40.9200,26.8800,-15.7800,-164.491,35.055,67.759,49.17428527,-121.67773193,0.00000000,
6.1460,-0.8135,-0.6167,0.3327,0.0193,0.3296,0.4822,-0.0586,-0.1076,-0.0064,848.7144,40.6200,26.2800,-15.5400,-164.015,35.055,67.759,49.17428527,-121.67773193,0.00000000,
6.1480,-0.8135,-0.6167,0.3327,0.0193,0.3296,0.4822,-0.2237,-0.1214,0.0650,848.7144,40.6200,26.2800,-15.5400,-164.015,35.055,67.759,49.17428527,-121.67773193,0.00000000,
6.1650,-0.8135,-0.6167,0.3327,-0.7215,-0.4253,-0.2074,-0.2237,-0.1214,0.0650,848.7144,40.6200,26.2800,-15.5400,-164.015,35.055,67.759,49.17428527,-121.67773193,0.00000000,
6.1840,-0.8135,-0.6167,0.3327,-0.7215,-0.4253,-0.2074,-0.2237,-0.1214,0.0650,848.7683,40.6200,26.2800,-15.5400,-164.015,35.055,67.759,49.17428527,-121.67773193,0.00000000,
6.1870,-0.8135,-0.6167,0.3327,-0.7215,-0.4253,-0.2074,-0.2237,-0.1214,0.0650,848.7683,40.6200,26.2800,-15.5400,-164.015,35.055,67.759,49.17428527,-121.67773193,0.00000000,
6.2050,-0.6909,-0.6020,0.4060,-0.7215,-0.4253,-0.2074,-0.2237,-0.1214,0.0650,848.7683,40.6200,26.2800,-15.5400,-123.503,36.917,59.561,49.17428527,-121.67773193,0.00000000,
6.2080,-0.6909,-0.6020,0.4060,-0.7215,-0.4253,-0.2074,-0.2237,-0.1214,0.0650,848.7683,40.3800,25.7400,-15.3000,-124.468,36.917,59.561,49.17428527,-121.67773193,0.00000000,
6.2160,-0.6909,-0.6020,0.4060,-0.7215,-0.4253,-0.2074,0.0820,-0.0362,0.0650,848.7683,40.3800,25.7400,-15.3000,-124.468,36.917,59.561,49.17428527,-121.67773193,0.00000000,
6.2250,-0.6909,-0.6020,0.4060,0.4337,-0.2105,0.5295,0.0820,-0.0362,0.0650,848.7683,40.3800,25.7400,-15.3000,-124.468,36.917,59.561,49.17428527,-121.67773193,0.00000000,
6.2680,-0.5888,-0.6030,0.4783,0.4337,-0.2105,0.5295,0.0820,-0.0362,0.0650,848.7683,40.3800,25.7400,-15.3000,-111.521,38.482,50.912,49.17428527,-121.67773193,0.00000000,
6.2780,-0.5888,-0.6030,0.4783,0.4337,-0.2105,0.5295,0.0820,-0.0362,0.0650,848.7683,40.2600,25.2600,-15.1200,-112.323,38.482,50.912,49.17428527,-121.67773193,0.00000000,
6.2840,-0.5888,-0.6030,0.4783,0.4337,-0.2105,0.5295,0.0075,0.0586,0.1822,848.7683,40.2600,25.2600,-15.1200,-112.323,38.482,50.912,49.17428527,-121.67773193,0.00000000,
6.2880,-0.5888,-0.6030,0.4783,1.4553,-0.2691,1.2014,0.0075,0.0586,0.1822,848.7683,40.2600,25.2600,-15.1200,-112.323,38.482,50.912,49.17428527,-121.67773193,0.00000000,
6.3230,-0.7686,-0.6284,0.2232,1.4553,-0.2691,1.2014,0.0075,0.0586,0.1822,848.7683,40.2600,25.2600,-15.1200,153.546,38.138,73.804,49.17428527,-121.67773193,0.00000000,
6.3250,-0.7686,-0.6284,0.2232,1.4553,-0.2691,1.2014,0.0075,0.0586,0.1822,848.7683,40.1400,24.7800,-14.9400,155.418,38.138,73.804,49.17428527,-121.67773193,0.00000000,
6.3270,-0.7686,-0.6284,0.2232,1.4553,-0.2691,1.2014,0.8693,-0.2099,0.6882,848.7683,40.1400,24.7800,-14.9400,155.418,38.138,73.804,49.17428527,-121.67773193,0.00000000,
6.3440,-0.7686,-0.6284,0.2232,-0.1999,-0.6375,-1.2659,0.8693,-0.2099,0.6882,848.7683,40.1400,24.7800,-14.9400,155.418,38.138,73.804,49.17428527,-121.67773193,0.00000000,
6.3630,-0.7686,-0.6284,0.2232,-0.1999,-0.6375,-1.2659,0.8693,-0.2099,0.6882,848.9285,40.1400,24.7800,-14.9400,155.418,38.138,73.804,49.17428527,-121.67773193,0.00000000,
6.3660,-0.7686,-0.6284,0.2232,-0.1999,-0.6375,-1.2659,0.8693,-0.2099,0.6882,848.9285,40.1400,24.7800,-14.9400,155.418,38.138,73.804,49.17428527,-121.67773193,0.00000000,
6.3850,-0.7446,-0.4266,0.3913,-0.1999,-0.6375,-1.2659,0.8693,-0.2099,0.6882,848.9285,40.1400,24.7800,-14.9400,-62.093,26.892,62.278,49.17428527,-121.67773193,0.00000000,
6.3880,-0.7446,-0.4266,0.3913,-0.1999,-0.6375,-1.2659,0.8693,-0.2099,0.6882,848.9285,40.1400,24.2400,-14.7600,-66.470,26.892,62.278,49.17428527,-121.67773193,0.00000000,
6.3920,-0.7446,-0.4266,0.3913,-0.1999,-0.6375,-1.2659,0.2493,0.0341,0.2290,848.9285,40.1400,24.2400,-14.7600,-66.470,26.892,62.278,49.17428527,-121.67773193,0.00000000,
6.4040,-0.7446,-0.4266,0.3913,-0.0315,0.9302,-0.3187,0.2493,0.0341,0.2290,848.9285,40.1400,24.2400,-14.7600,-66.470,26.892,62.278,49.17428527,-121.67773193,0.00000000,
6.4480,-0.8986,-0.3611,0.8374,-0.0315,0.9302,-0.3187,0.2493,0.0341,0.2290,848.9285,40.1400,24.2400,-14.7600,-53.784,16.385,47.017,49.17428527,-121.67773193,0.00000000,
6.4620,-0.8986,-0.3611,0.8374,-0.0315,0.9302,-0.3187,0.2493,0.0341,0.2290,848.9285,40.1400,23.7600,-14.7000,-54.879,16.385,47.017,49.17428527,-121.67773193,0.00000000,
6.4660,-0.8986,-0.3611,0.8374,-0.0315,0.9302,-0.3187,0.1513,-0.9353,-1.6565,848.9285,40.1400,23.7600,-14.7000,-54.879,16.385,47.017,49.17428527,-121.67773193,0.00000000,
6.4790,-0.8986,-0.3611,0.8374,-1.4258,1.4845,4.1488,0.1513,-0.9353,-1.6565,848.9285,40.1400,23.7600,-14.7000,-54.879,16.385,47.017,49.17428527,-121.67773193,0.00000000,
6.5030,-0.5663,-0.5615,0.4959,-1.4258,1.4845,4.1488,0.1513,-0.9353,-1.6565,848.9285,40.1400,23.7600,-14.7000,-107.332,36.720,48.793,49.17428527,-121.67773193,0.00000000,
6.5040,-0.5663,-0.5615,0.4959,-1.4258,1.4845,4.1488,0.1513,-0.9353,-1.6565,848.9285,40.1400,23.3400,-14.7000,-108.467,36.720,48.793,49.17428527,-121.67773193,0.00000000,
6.5060,-0.5663,-0.5615,0.4959,-1.4258,1.4845,4.1488,-0.4091,0.0607,-2.1007,848.9285,40.1400,23.3400,-14.7000,-108.467,36.720,48.793,49.17428527,-121.67773193,0.00000000,
6.5260,-0.5663,-0.5615,0.4959,1.3163,0.2825,0.9149,-0.4091,0.0607,-2.1007,848.9285,40.1400,23.3400,-14.7000,-108.467,36.720,48.793,49.17428527,-121.67773193,0.00000000,
6.5420,-0.5663,-0.5615,0.4959,1.3163,0.2825,0.9149,-0.4091,0.0607,-2.1007,848.9175,40.1400,23.3400,-14.7000,-108.467,36.720,48.793,49.17428527,-121.67773193,0.00000000,
6.5450,-0.5663,-0.5615,0.4959,1.3163,0.2825,0.9149,-0.4091,0.0607,-2.1007,848.9175,40.1400,23.3400,-14.7000,-108.467,36.720,48.793,49.17428527,-121.67773193,0.00000000,
6.5640,-0.6513,-0.7379,0.2638,1.3163,0.2825,0.9149,-0.4091,0.0607,-2.1007,848.9175,40.1400,23.3400,-14.7000,-174.446,46.398,67.952,49.17428527,-121.67773193,0.00000000,
6.5670,-0.6513,-0.7379,0.2638,1.3163,0.2825,0.9149,-0.4091,0.0607,-2.1007,848.9175,40.0800,23.1000,-14.7000,-174.578,46.398,67.952,49.17428527,-121.67773193,0.00000000,
6.5710,-0.6513,-0.7379,0.2638,1.3163,0.2825,0.9149,-0.6125,-0.3750,-1.5255,848.9175,40.0800,23.1000,-14.7000,-174.578,46.398,67.952,49.17428527,-121.67773193,0.00000000,
6.5840,-0.6513,-0.7379,0.2638,-0.2204,-0.4363,-0.8823,-0.6125,-0.3750,-1.5255,848.9175,40.0800,23.1000,-14.7000,-174.578,46.398,67.952,49.17428527,-121.67773193,0.00000000,
6.6220,-0.4031,-0.7183,0.3532,-0.2204,-0.4363,-0.8823,-0.6125,-0.3750,-1.5255,848.9175,40.0800,23.1000,-14.7000,-139.704,53.273,48.775,49.17428527,-121.67773193,0.00000000,
6.6240,-0.4031,-0.7183,0.3532,-0.2204,-0.4363,-0.8823,-0.6125,-0.3750,-1.5255,848.9175,40.0200,22.9800,-14.7600,-139.965,53.273,48.775,49.17428527,-121.67773193,0.00000000,
6.6260,-0.4031,-0.7183,0.3532,-0.2204,-0.4363,-0.8823,1.4030,-0.2983,-1.2879,848.9175,40.0200,22.9800,-14.7600,-139.965,53.273,48.775,49.17428527,-121.67773193,0.00000000,
6.6420,-0.4031,-0.7183,0.3532,1.4940,0.3870,0.0888,1.4030,-0.2983,-1.2879,848.9175,40.0200,22.9800,-14.7600,-139.965,53.273,48.775,49.17428527,-121.67773193,0.00000000,
6.6820,-0.3454,-0.7638,0.2960,1.4940,0.3870,0.0888,1.4030,-0.2983,-1.2879,848.9175,40.0200,22.9800,-14.7600,-146.719,59.219,49.405,49.17428527,-121.67773193,0.00000000,
6.6840,-0.3454,-0.7638,0.2960,1.4940,0.3870,0.0888,1.4030,-0.2983,-1.2879,848.9175,39.8400,22.9200,-14.7600,-146.826,59.219,49.405,49.17428527,-121.67773193,0.00000000,
6.6850,-0.3454,-0.7638,0.2960,1.4940,0.3870,0.0888,0.5401,0.1726,-1.7502,848.9175,39.8400,22.9200,-14.7600,-146.826,59.219,49.405,49.17428527,-121.67773193,0.00000000,
6.7030,-0.3454,-0.7638,0.2960,1.4112,0.0252,-1.1928,0.5401,0.1726,-1.7502,848.9175,39.8400,22.9200,-14.7600,-146.826,59.219,49.405,49.17428527,-121.67773193,0.00000000,
6.7220,-0.3454,-0.7638,0.2960,1.4112,0.0252,-1.1928,0.5401,0.1726,-1.7502,848.8577,39.8400,22.9200,-14.7600,-146.826,59.219,49.405,49.17428527,-121.67773193,0.00000000,
6.7250,-0.3454,-0.7638,0.2960,1.4112,0.0252,-1.1928,0.5401,0.1726,-1.7502,848.8577,39.8400,22.9200,-14.7600,-146.826,59.219,49.405,49.17428527,-121.67773193,0.00000000,
6.7430,-0.3401,-0.9836,0.3605,1.4112,0.0252,-1.1928,0.5401,0.1726,-1.7502,848.8577,39.8400,22.9200,-14.7600,-141.483,63.258,43.327,49.17428527,-121.67773193,0.00000000,
6.7460,-0.3401,-0.9836,0.3605,1.4112,0.0252,-1.1928,0.5401,0.1726,-1.7502,848.8577,39.1800,22.8600,-14.9400,-142.082,63.258,43.327,49.17428527,-121.67773193,0.00000000,
6.7500,-0.3401,-0.9836,0.3605,1.4112,0.0252,-1.1928,-0.0469,0.0245,-0.6136,848.8577,39.1800,22.8600,-14.9400,-142.082,63.258,43.327,49.17428527,-121.67773193,0.00000000,
6.7650,-0.3401,-0.9836,0.3605,0.8024,-1.8117,-0.6852,-0.0469,0.0245,-0.6136,848.8577,39.1800,22.8600,-14.9400,-142.082,63.258,43.327,49.17428527,-121.67773193,0.00000000,
6.8050,-0.4261,-0.7906,0.4749,0.8024,-1.8117,-0.6852,-0.0469,0.0245,-0.6136,848.8577,39.1800,22.8600,-14.9400,-127.387,51.099,41.900,49.17428527,-121.67773193,0.00000000,
6.8100,-0.4261,-0.7906,0.4749,0.8024,-1.8117,-0.6852,-0.0469,0.0245,-0.6136,848.8577,38.4000,22.7400,-15.1800,-128.115,51.099,41.900,49.17428527,-121.67773193,0.00000000,
6.8170,-0.4261,-0.7906,0.4749,0.8024,-1.8117,-0.6852,0.0756,0.0586,0.2823,848.8577,38.4000,22.7400,-15.1800,-128.115,51.099,41.900,49.17428527,-121.67773193,0.00000000,
6.8290,-0.4261,-0.7906,0.4749,-0.0719,0.0646,0.3770,0.0756,0.0586,0.2823,848.8577,38.4000,22.7400,-15.1800,-128.115,51.099,41.900,49.17428527,-121.67773193,0.00000000,
6.8620,-0.3884,-0.8331,0.4343,-0.0719,0.0646,0.3770,0.0756,0.0586,0.2823,848.8577,38.4000,22.7400,-15.1800,-132.939,55.032,41.809,49.17428527,-121.67773193,0.00000000,
6.8640,-0.3884,-0.8331,0.4343,-0.0719,0.0646,0.3770,0.0756,0.0586,0.2823,848.8577,37.6200,22.6800,-15.4200,-133.699,55.032,41.809,49.17428527,-121.67773193,0.00000000,
6.8660,-0.3884,-0.8331,0.4343,-0.0719,0.0646,0.3770,-0.2450,0.0937,0.0213,848.8577,37.6200,22.6800,-15.4200,-133.699,55.032,41.809,49.17428527,-121.67773193,0.00000000,
6.8810,-0.3884,-0.8331,0.4343,0.2440,-0.2400,0.1381,-0.2450,0.0937,0.0213,848.8577,37.6200,22.6800,-15.4200,-133.699,55.032,41.809,49.17428527,-121.67773193,0.00000000,
6.9020,-0.3884,-0.8331,0.4343,0.2440,-0.2400,0.1381,-0.2450,0.0937,0.0213,848.9807,37.6200,22.6800,-15.4200,-133.699,55.032,41.809,49.17428527,-121.67773193,0.00000000,
6.9040,-0.3884,-0.8331,0.4343,0.2440,-0.2400,0.1381,-0.2450,0.0937,0.0213,848.9807,37.6200,22.6800,-15.4200,-133.699,55.032,41.809,49.17428527,-121.67773193,0.00000000,
6.9230,-0.3562,-0.8297,0.5022,0.2440,-0.2400,0.1381,-0.2450,0.0937,0.0213,848.9807,37.6200,22.6800,-15.4200,-122.865,53.422,35.345,49.17428527,-121.67773193,0.00000000,
6.9260,-0.3562,-0.8297,0.5022,0.2440,-0.2400,0.1381,-0.2450,0.0937,0.0213,848.9807,36.9000,22.6200,-15.6000,-123.372,53.422,35.345,49.17428527,-121.67773193,0.00000000,
6.9280,-0.3562,-0.8297,0.5022,0.2440,-0.2400,0.1381,-0.3089,0.1566,0.1321,848.9807,36.9000,22.6200,-15.6000,-123.372,53.422,35.345,49.17428527,-121.67773193,0.00000000,
6.9420,-0.3562,-0.8297,0.5022,0.6992,-0.2155,0.9275,-0.3089,0.1566,0.1321,848.9807,36.9000,22.6200,-15.6000,-123.372,53.422,35.345,49.17428527,-121.67773193,0.00000000,
6.9930,-0.3577,-0.8385,0.5477,0.6992,-0.2155,0.9275,-0.3089,0.1566,0.1321,848.9807,36.9000,22.6200,-15.6000,-118.797,52.043,33.147,49.17428527,-121.67773193,0.00000000,
6.9990,-0.3577,-0.8385,0.5477,0.6992,-0.2155,0.9275,-0.3089,0.1566,0.1321,848.9807,36.0600,22.5600,-15.8400,-119.391,52.043,33.147,49.17428527,-121.67773193,0.00000000,
7.0050,-0.3577,-0.8385,0.5477,0.6992,-0.2155,0.9275,-1.1579,0.0959,0.9300,848.9807,36.0600,22.5600,-15.8400,-119.391,52.043,33.147,49.17428527,-121.67773193,0.00000000,
7.0080,-0.3577,-0.8385,0.5477,1.1494,-0.2714,1.9958,-1.1579,0.0959,0.9300,848.9807,36.0600,22.5600,-15.8400,-119.391,52.043,33.147,49.17428527,-121.67773193,0.00000000,
7.0410,-0.4652,-0.9758,0.2066,1.1494,-0.2714,1.9958,-1.1579,0.0959,0.9300,848.9807,36.0600,22.5600,-15.8400,-179.620,62.454,66.049,49.17428527,-121.67773193,0.00000000,
7.0430,-0.4652,-0.9758,0.2066,1.1494,-0.2714,1.9958,-1.1579,0.0959,0.9300,848.9807,35.2800,22.5000,-16.0800,179.107,62.454,66.049,49.17428527,-121.67773193,0.00000000,
7.0450,-0.4652,-0.9758,0.2066,1.1494,-0.2714,1.9958,0.0469,-0.1129,1.5830,848.9807,35.2800,22.5000,-16.0800,179.107,62.454,66.049,49.17428527,-121.67773193,0.00000000,
7.0610,-0.4652,-0.9758,0.2066,0.7985,-2.2001,-1.6165,0.0469,-0.1129,1.5830,848.9807,35.2800,22.5000,-16.0800,179.107,62.454,66.049,49.17428527,-121.67773193,0.00000000,
7.0860,-0.4652,-0.9758,0.2066,0.7985,-2.2001,-1.6165,0.0469,-0.1129,1.5830,848.8838,35.2800,22.5000,-16.0800,179.107,62.454,66.049,49.17428527,-121.67773193,0.00000000,
7.0940,-0.4652,-0.9758,0.2066,0.7985,-2.2001,-1.6165,0.0469,-0.1129,1.5830,848.8838,35.2800,22.5000,-16.0800,179.107,62.454,66.049,49.17428527,-121.67773193,0.00000000,
7.1010,-0.4793,-0.7848,0.4514,0.7985,-2.2001,-1.6165,0.0469,-0.1129,1.5830,848.8838,35.2800,22.5000,-16.0800,-137.579,50.003,46.718,49.17428527,-121.67773193,0.00000000,
7.1030,-0.4793,-0.7848,0.4514,0.7985,-2.2001,-1.6165,0.0469,-0.1129,1.5830,848.8838,34.5000,22.4400,-16.2600,-138.504,50.003,46.718,49.17428527,-121.67773193,0.00000000,
7.1040,-0.4793,-0.7848,0.4514,0.7985,-2.2001,-1.6165,0.5902,-0.1374,-0.1161,848.8838,34.5000,22.4400,-16.2600,-138.504,50.003,46.718,49.17428527,-121.67773193,0.00000000,
7.1200,-0.4793,-0.7848,0.4514,0.5835,-0.4253,0.4874,0.5902,-0.1374,-0.1161,848.8838,34.5000,22.4400,-16.2600,-138.504,50.003,46.718,49.17428527,-121.67773193,0.00000000,
7.1600,-0.5468,-0.7071,0.4543,0.5835,-0.4253,0.4874,0.5902,-0.1374,-0.1161,848.8838,34.5000,22.4400,-16.2600,-136.707,44.846,50.274,49.17428527,-121.67773193,0.00000000,
7.1620,-0.5468,-0.7071,0.4543,0.5835,-0.4253,0.4874,0.5902,-0.1374,-0.1161,848.8838,33.7800,22.3800,-16.4400,-137.795,44.846,50.274,49.17428527,-121.67773193,0.00000000,
7.1640,-0.5468,-0.7071,0.4543,0.5835,-0.4253,0.4874,0.1214,-0.0575,-0.0213,848.8838,33.7800,22.3800,-16.4400,-137.795,44.846,50.274,49.17428527,-121.67773193,0.00000000,
7.1810,-0.5468,-0.7071,0.4543,-0.1156,0.4537,0.6876,0.1214,-0.0575,-0.0213,848.8838,33.7800,22.3800,-16.4400,-137.795,44.846,50.274,49.17428527,-121.67773193,0.00000000,
7.2260,-0.7090,-0.3841,0.1744,-0.1156,0.4537,0.6876,0.1214,-0.0575,-0.0213,848.8838,33.7800,22.3800,-16.4400,71.089,27.749,76.182,49.17428527,-121.67773193,0.00000000,
7.2410,-0.7090,-0.3841,0.1744,-0.1156,0.4537,0.6876,0.1214,-0.0575,-0.0213,848.8838,33.1200,22.3200,-16.6200,70.397,27.749,76.182,49.17428527,-121.67773193,0.00000000,
7.2480,-0.7090,-0.3841,0.1744,-0.1156,0.4537,0.6876,-0.5635,0.0703,1.5233,848.8838,33.1200,22.3200,-16.6200,70.397,27.749,76.182,49.17428527,-121.67773193,0.00000000,
7.2550,-0.7090,-0.3841,0.1744,-1.5654,3.4319,-2.2170,-0.5635,0.0703,1.5233,848.8838,33.1200,22.3200,-16.6200,70.397,27.749,76.182,49.17428527,-121.67773193,0.00000000,
7.2610,-0.7090,-0.3841,0.1744,-1.5654,3.4319,-2.2170,-0.5635,0.0703,1.5233,848.9175,33.1200,22.3200,-16.6200,70.397,27.749,76.182,49.17428527,-121.67773193,0.00000000,
7.2620,-0.7090,-0.3841,0.1744,-1.5654,3.4319,-2.2170,-0.5635,0.0703,1.5233,848.9175,33.1200,22.3200,-16.6200,70.397,27.749,76.182,49.17428527,-121.67773193,0.00000000,
7.2810,-0.5707,-0.6778,0.3923,-1.5654,3.4319,-2.2170,-0.5635,0.0703,1.5233,848.9175,33.1200,22.3200,-16.6200,-152.485,44.383,55.496,49.17428527,-121.67773193,0.00000000,
7.2820,-0.5707,-0.6778,0.3923,-1.5654,3.4319,-2.2170,-0.5635,0.0703,1.5233,848.9175,32.4600,22.3800,-16.6200,-153.233,44.383,55.496,49.17428527,-121.67773193,0.00000000,
7.2860,-0.5707,-0.6778,0.3923,-1.5654,3.4319,-2.2170,0.5625,-0.0682,0.0937,848.9175,32.4600,22.3800,-16.6200,-153.233,44.383,55.496,49.17428527,-121.67773193,0.00000000,
7.3020,-0.5707,-0.6778,0.3923,-0.2028,0.4558,-0.2466,0.5625,-0.0682,0.0937,848.9175,32.4600,22.3800,-16.6200,-153.233,44.383,55.496,49.17428527,-121.67773193,0.00000000,
7.3430,-0.5751,-0.6939,0.3600,-0.2028,0.4558,-0.2466,0.5625,-0.0682,0.0937,848.9175,32.4600,22.3800,-16.6200,-163.104,45.642,57.951,49.17428527,-121.67773193,0.00000000,
7.3470,-0.5751,-0.6939,0.3600,-0.2028,0.4558,-0.2466,0.5625,-0.0682,0.0937,848.9175,31.7400,22.5000,-16.6200,-164.310,45.642,57.951,49.17428527,-121.67773193,0.00000000,
7.3530,-0.5751,-0.6939,0.3600,-0.2028,0.4558,-0.2466,-0.3025,0.1257,0.1129,848.9175,31.7400,22.5000,-16.6200,-164.310,45.642,57.951,49.17428527,-121.67773193,0.00000000,
7.3620,-0.5751,-0.6939,0.3600,-0.1594,0.3883,-0.2800,-0.3025,0.1257,0.1129,848.9175,31.7400,22.5000,-16.6200,-164.310,45.642,57.951,49.17428527,-121.67773193,0.00000000,
7.4050,-0.6122,-0.7755,0.3434,-0.1594,0.3883,-0.2800,-0.3025,0.1257,0.1129,848.9175,31.7400,22.5000,-16.6200,-174.844,47.848,60.710,49.17428527,-121.67773193,0.00000000,
7.4110,-0.6122,-0.7755,0.3434,-0.1594,0.3883,-0.2800,-0.3025,0.1257,0.1129,848.9175,31.0800,22.5600,-16.5600,-176.020,47.848,60.710,49.17428527,-121.67773193,0.00000000,
7.4200,-0.6122,-0.7755,0.3434,-0.1594,0.3883,-0.2800,0.1257,0.0575,0.1374,848.9175,31.0800,22.5600,-16.5600,-176.020,47.848,60.710,49.17428527,-121.67773193,0.00000000,
7.4250,-0.6122,-0.7755,0.3434,-0.4488,-0.4610,-0.4282,0.1257,0.0575,0.1374,848.9175,31.0800,22.5600,-16.5600,-176.020,47.848,60.710,49.17428527,-121.67773193,0.00000000,
7.4420,-0.6122,-0.7755,0.3434,-0.4488,-0.4610,-0.4282,0.1257,0.0575,0.1374,848.7542,31.0800,22.5600,-16.5600,-176.020,47.848,60.710,49.17428527,-121.67773193,0.00000000,
7.4450,-0.6122,-0.7755,0.3434,-0.4488,-0.4610,-0.4282,0.1257,0.0575,0.1374,848.7542,31.0800,22.5600,-16.5600,-176.020,47.848,60.710,49.17428527,-121.67773193,0.00000000,
7.4620,-0.6689,-0.6724,0.3170,-0.4488,-0.4610,-0.4282,0.1257,0.0575,0.1374,848.7542,31.0800,22.5600,-16.5600,166.630,42.250,64.640,49.17428527,-121.67773193,0.00000000,
7.4650,-0.6689,-0.6724,0.3170,-0.4488,-0.4610,-0.4282,0.1257,0.0575,0.1374,848.7542,30.4800,22.6800,-16.5000,164.028,42.250,64.640,49.17428527,-121.67773193,0.00000000,
7.4690,-0.6689,-0.6724,0.3170,-0.4488,-0.4610,-0.4282,0.1268,0.0458,-0.7617,848.7542,30.4800,22.6800,-16.5000,164.028,42.250,64.640,49.17428527,-121.67773193,0.00000000,
7.4830,-0.6689,-0.6724,0.3170,-1.3784,0.8292,-0.6790,0.1268,0.0458,-0.7617,848.7542,30.4800,22.6800,-16.5000,164.028,42.250,64.640,49.17428527,-121.67773193,0.00000000,
7.5230,-0.5951,-1.1004,0.4627,-1.3784,0.8292,-0.6790,0.1268,0.0458,-0.7617,848.7542,30.4800,22.6800,-16.5000,-159.740,55.588,52.138,49.17428527,-121.67773193,0.00000000,
7.5260,-0.5951,-1.1004,0.4627,-1.3784,0.8292,-0.6790,0.1268,0.0458,-0.7617,848.7542,30.0600,22.7400,-16.4400,-160.028,55.588,52.138,49.17428527,-121.67773193,0.00000000,
7.5290,-0.5951,-1.1004,0.4627,-1.3784,0.8292,-0.6790,-0.9534,0.2471,-0.4847,848.7542,30.0600,22.7400,-16.4400,-160.028,55.588,52.138,49.17428527,-121.67773193,0.00000000,
7.5440,-0.5951,-1.1004,0.4627,-0.8670,-2.9036,1.4658,-0.9534,0.2471,-0.4847,848.7542,30.0600,22.7400,-16.4400,-160.028,55.588,52.138,49.17428527,-121.67773193,0.00000000,
7.5860,-0.6039,-1.0374,0.2511,-0.8670,-2.9036,1.4658,-0.9534,0.2471,-0.4847,848.7542,30.0600,22.7400,-16.4400,167.696,57.770,67.425,49.17428527,-121.67773193,0.00000000,
7.5940,-0.6039,-1.0374,0.2511,-0.8670,-2.9036,1.4658,-0.9534,0.2471,-0.4847,848.7542,29.6400,22.8000,-16.3800,167.065,57.770,67.425,49.17428527,-121.67773193,0.00000000,
7.6040,-0.6039,-1.0374,0.2511,-0.8670,-2.9036,1.4658,-0.4304,-0.1800,0.2525,848.7542,29.6400,22.8000,-16.3800,167.065,57.770,67.425,49.17428527,-121.67773193,0.00000000,
7.6090,-0.6039,-1.0374,0.2511,-0.9701,-2.2697,-0.5933,-0.4304,-0.1800,0.2525,848.7542,29.6400,22.8000,-16.3800,167.065,57.770,67.425,49.17428527,-121.67773193,0.00000000,
7.6190,-0.6039,-1.0374,0.2511,-0.9701,-2.2697,-0.5933,-0.4304,-0.1800,0.2525,848.9062,29.6400,22.8000,-16.3800,167.065,57.770,67.425,49.17428527,-121.67773193,0.00000000,
7.6210,-0.6039,-1.0374,0.2511,-0.9701,-2.2697,-0.5933,-0.4304,-0.1800,0.2525,848.9062,29.6400,22.8000,-16.3800,167.065,57.770,67.425,49.17428527,-121.67773193,0.00000000,
7.6420,-0.3591,-0.4550,0.2858,-0.9701,-2.2697,-0.5933,-0.4304,-0.1800,0.2525,848.9062,29.6400,22.8000,-16.3800,-142.377,44.749,51.489,49.17428527,-121.67773193,0.00000000,
7.6430,-0.3591,-0.4550,0.2858,-0.9701,-2.2697,-0.5933,-0.4304,-0.1800,0.2525,848.9062,29.3400,22.9200,-16.2600,-141.663,44.749,51.489,49.17428527,-121.67773193,0.00000000,
7.6450,-0.3591,-0.4550,0.2858,-0.9701,-2.2697,-0.5933,-0.2887,-0.2354,0.7734,848.9062,29.3400,22.9200,-16.2600,-141.663,44.749,51.489,49.17428527,-121.67773193,0.00000000,
7.6600,-0.3591,-0.4550,0.2858,1.8010,3.1083,-0.4559,-0.2887,-0.2354,0.7734,848.9062,29.3400,22.9200,-16.2600,-141.663,44.749,51.489,49.17428527,-121.67773193,0.00000000,
7.7040,-0.7388,-0.2600,0.2535,1.8010,3.1083,-0.4559,-0.2887,-0.2354,0.7734,848.9062,29.3400,22.9200,-16.2600,27.364,18.412,71.059,49.17428527,-121.67773193,0.00000000,
7.7090,-0.7388,-0.2600,0.2535,1.8010,3.1083,-0.4559,-0.2887,-0.2354,0.7734,848.9062,29.6400,23.7600,-16.0800,24.898,18.412,71.059,49.17428527,-121.67773193,0.00000000,
7.7160,-0.7388,-0.2600,0.2535,1.8010,3.1083,-0.4559,0.7212,0.0202,-0.0277,848.9062,29.6400,23.7600,-16.0800,24.898,18.412,71.059,49.17428527,-121.67773193,0.00000000,
7.7280,-0.7388,-0.2600,0.2535,-1.6568,4.6715,-1.1036,0.7212,0.0202,-0.0277,848.9062,29.6400,23.7600,-16.0800,24.898,18.412,71.059,49.17428527,-121.67773193,0.00000000,
7.7600,-0.4500,-0.7247,0.9342,-1.6568,4.6715,-1.1036,0.7212,0.0202,-0.0277,848.9062,29.6400,23.7600,-16.0800,-79.074,34.949,25.721,49.17428527,-121.67773193,0.00000000,
7.7620,-0.4500,-0.7247,0.9342,-1.6568,4.6715,-1.1036,0.7212,0.0202,-0.0277,848.9062,30.0000,24.5400,-15.8400,-77.463,34.949,25.721,49.17428527,-121.67773193,0.00000000,
7.7630,-0.4500,-0.7247,0.9342,-1.6568,4.6715,-1.1036,0.6615,-0.8916,0.6445,848.9062,30.0000,24.5400,-15.8400,-77.463,34.949,25.721,49.17428527,-121.67773193,0.00000000,
7.7800,-0.4500,-0.7247,0.9342,1.0345,0.0039,5.1503,0.6615,-0.8916,0.6445,848.9062,30.0000,24.5400,-15.8400,-77.463,34.949,25.721,49.17428527,-121.67773193,0.00000000,
7.8020,-0.4500,-0.7247,0.9342,1.0345,0.0039,5.1503,0.6615,-0.8916,0.6445,848.9497,30.0000,24.5400,-15.8400,-77.463,34.949,25.721,49.17428527,-121.67773193,0.00000000,
7.8060,-0.4500,-0.7247,0.9342,1.0345,0.0039,5.1503,0.6615,-0.8916,0.6445,848.9497,30.0000,24.5400,-15.8400,-77.463,34.949,25.721,49.17428527,-121.67773193,0.00000000,
7.8220,-0.3958,-0.8498,0.1416,1.0345,0.0039,5.1503,0.6615,-0.8916,0.6445,848.9497,30.0000,24.5400,-15.8400,165.963,63.679,70.309,49.17428527,-121.67773193,0.00000000,
7.8270,-0.3958,-0.8498,0.1416,1.0345,0.0039,5.1503,0.6615,-0.8916,0.6445,848.9497,30.3000,25.2600,-15.8400,166.201,63.679,70.309,49.17428527,-121.67773193,0.00000000,
7.8360,-0.3958,-0.8498,0.1416,1.0345,0.0039,5.1503,1.0248,0.4559,-0.9662,848.9497,30.3000,25.2600,-15.8400,166.201,63.679,70.309,49.17428527,-121.67773193,0.00000000,
7.8480,-0.3958,-0.8498,0.1416,1.1432,-1.0541,-2.8601,1.0248,0.4559,-0.9662,848.9497,30.3000,25.2600,-15.8400,166.201,63.679,70.309,49.17428527,-121.67773193,0.00000000,
7.8800,-0.4290,-0.9646,0.4675,1.1432,-1.0541,-2.8601,1.0248,0.4559,-0.9662,848.9497,30.3000,25.2600,-15.8400,-138.178,56.662,42.539,49.17428527,-121.67773193,0.00000000,
7.8820,-0.4290,-0.9646,0.4675,1.1432,-1.0541,-2.8601,1.0248,0.4559,-0.9662,848.9497,29.9400,25.4400,-16.9800,-141.668,56.662,42.539,49.17428527,-121.67773193,0.00000000,
7.8840,-0.4290,-0.9646,0.4675,1.1432,-1.0541,-2.8601,-0.2557,-0.2748,-0.2674,848.9497,29.9400,25.4400,-16.9800,-141.668,56.662,42.539,49.17428527,-121.67773193,0.00000000,
7.9010,-0.4290,-0.9646,0.4675,0.7436,-2.0753,0.4272,-0.2557,-0.2748,-0.2674,848.9497,29.9400,25.4400,-16.9800,-141.668,56.662,42.539,49.17428527,-121.67773193,0.00000000,
7.9430,-0.4823,-0.8087,0.4460,0.7436,-2.0753,0.4272,-0.2557,-0.2748,-0.2674,848.9497,29.9400,25.4400,-16.9800,-141.736,50.913,47.234,49.17428527,-121.67773193,0.00000000,
7.9460,-0.4823,-0.8087,0.4460,0.7436,-2.0753,0.4272,-0.2557,-0.2748,-0.2674,848.9497,29.4600,25.2000,-18.4200,-148.576,50.913,47.234,49.17428527,-121.67773193,0.00000000,
7.9590,-0.4823,-0.8087,0.4460,0.7436,-2.0753,0.4272,-0.3377,-0.2663,0.3686,848.9497,29.4600,25.2000,-18.4200,-148.576,50.913,47.234,49.17428527,-121.67773193,0.00000000,
7.9630,-0.4823,-0.8087,0.4460,0.3167,-0.5795,0.2752,-0.3377,-0.2663,0.3686,848.9497,29.4600,25.2000,-18.4200,-148.576,50.913,47.234,49.17428527,-121.67773193,0.00000000,
7.9810,-0.4823,-0.8087,0.4460,0.3167,-0.5795,0.2752,-0.3377,-0.2663,0.3686,848.9221,29.4600,25.2000,-18.4200,-148.576,50.913,47.234,49.17428527,-121.67773193,0.00000000,
7.9840,-0.4823,-0.8087,0.4460,0.3167,-0.5795,0.2752,-0.3377,-0.2663,0.3686,848.9221,29.4600,25.2000,-18.4200,-148.576,50.913,47.234,49.17428527,-121.67773193,0.00000000,
7.9990,-0.4774,-0.8068,0.4768,0.3167,-0.5795,0.2752,-0.3377,-0.2663,0.3686,848.9221,29.4600,25.2000,-18.4200,-141.551,50.093,45.033,49.17428527,-121.67773193,0.00000000,
8.0010,-0.4774,-0.8068,0.4768,0.3167,-0.5795,0.2752,-0.3377,-0.2663,0.3686,848.9221,28.9800,25.0200,-19.9200,-148.631,50.093,45.033,49.17428527,-121.67773193,0.00000000,
8.0030,-0.4774,-0.8068,0.4768,0.3167,-0.5795,0.2752,0.1236,0.0895,0.1481,848.9221,28.9800,25.0200,-19.9200,-148.631,50.093,45.033,49.17428527,-121.67773193,0.00000000,
8.0200,-0.4774,-0.8068,0.4768,0.4242,-0.6522,0.4880,0.1236,0.0895,0.1481,848.9221,28.9800,25.0200,-19.9200,-148.631,50.093,45.033,49.17428527,-121.67773193,0.00000000,
8.0650,-0.5116,-0.5737,0.4998,0.4242,-0.6522,0.4880,0.1236,0.0895,0.1481,848.9221,28.9800,25.0200,-19.9200,-109.825,38.735,45.668,49.17428527,-121.67773193,0.00000000,
8.0740,-0.5116,-0.5737,0.4998,0.4242,-0.6522,0.4880,0.1236,0.0895,0.1481,848.9221,28.4400,24.7800,-21.3600,-120.798,38.735,45.668,49.17428527,-121.67773193,0.00000000,
8.0830,-0.5116,-0.5737,0.4998,0.4242,-0.6522,0.4880,-0.0107,0.0309,0.3100,848.9221,28.4400,24.7800,-21.3600,-120.798,38.735,45.668,49.17428527,-121.67773193,0.00000000,
8.0890,-0.5116,-0.5737,0.4998,0.3591,1.4696,0.7733,-0.0107,0.0309,0.3100,848.9221,28.4400,24.7800,-21.3600,-120.798,38.735,45.668,49.17428527,-121.67773193,0.00000000,
8.1200,-0.5663,-0.6426,0.4622,0.3591,1.4696,0.7733,-0.0107,0.0309,0.3100,848.9221,28.4400,24.7800,-21.3600,-163.546,41.319,50.782,49.17428527,-121.67773193,0.00000000,
8.1220,-0.5663,-0.6426,0.4622,0.3591,1.4696,0.7733,-0.0107,0.0309,0.3100,848.9221,27.9000,24.6000,-22.8600,179.248,41.319,50.782,49.17428527,-121.67773193,0.00000000,
8.1240,-0.5663,-0.6426,0.4622,0.3591,1.4696,0.7733,-0.5795,-0.1864,0.1065,848.9221,27.9000,24.6000,-22.8600,179.248,41.319,50.782,49.17428527,-121.67773193,0.00000000,
8.1390,-0.5663,-0.6426,0.4622,-0.1395,0.8430,0.5399,-0.5795,-0.1864,0.1065,848.9221,27.9000,24.6000,-22.8600,179.248,41.319,50.782,49.17428527,-121.67773193,0.00000000,
8.1590,-0.5663,-0.6426,0.4622,-0.1395,0.8430,0.5399,-0.5795,-0.1864,0.1065,848.7864,27.9000,24.6000,-22.8600,179.248,41.319,50.782,49.17428527,-121.67773193,0.00000000,
8.1610,-0.5663,-0.6426,0.4622,-0.1395,0.8430,0.5399,-0.5795,-0.1864,0.1065,848.7864,27.9000,24.6000,-22.8600,179.248,41.319,50.782,49.17428527,-121.67773193,0.00000000,
8.1800,-0.5512,-0.7296,0.4392,-0.1395,0.8430,0.5399,-0.5795,-0.1864,0.1065,848.7864,27.9000,24.6000,-22.8600,176.827,45.991,51.450,49.17428527,-121.67773193,0.00000000,
8.1820,-0.5512,-0.7296,0.4392,-0.1395,0.8430,0.5399,-0.5795,-0.1864,0.1065,848.7864,27.3600,24.3600,-24.3600,167.968,45.991,51.450,49.17428527,-121.67773193,0.00000000,
8.1840,-0.5512,-0.7296,0.4392,-0.1395,0.8430,0.5399,-0.0597,-0.0011,0.9172,848.7864,27.3600,24.3600,-24.3600,167.968,45.991,51.450,49.17428527,-121.67773193,0.00000000,
8.2010,-0.5512,-0.7296,0.4392,0.3051,-0.2380,0.3248,-0.0597,-0.0011,0.9172,848.7864,27.3600,24.3600,-24.3600,167.968,45.991,51.450,49.17428527,-121.67773193,0.00000000,
8.2410,-0.6494,-0.7369,0.3679,0.3051,-0.2380,0.3248,-0.0597,-0.0011,0.9172,848.7864,27.3600,24.3600,-24.3600,135.435,44.636,60.469,49.17428527,-121.67773193,0.00000000,
8.2450,-0.6494,-0.7369,0.3679,0.3051,-0.2380,0.3248,-0.0597,-0.0011,0.9172,848.7864,26.8200,24.1800,-25.9800,131.097,44.636,60.469,49.17428527,-121.67773193,0.00000000,
8.2480,-0.6494,-0.7369,0.3679,0.3051,-0.2380,0.3248,0.0629,0.0575,0.1662,848.7864,26.8200,24.1800,-25.9800,131.097,44.636,60.469,49.17428527,-121.67773193,0.00000000,
8.2600,-0.6494,-0.7369,0.3679,-0.6108,-0.3503,-0.3774,0.0629,0.0575,0.1662,848.7864,26.8200,24.1800,-25.9800,131.097,44.636,60.469,49.17428527,-121.67773193,0.00000000,
8.3000,-0.6386,-0.6675,0.3390,-0.6108,-0.3503,-0.3774,0.0629,0.0575,0.1662,848.7864,26.8200,24.1800,-25.9800,122.339,42.713,62.037,49.17428527,-121.67773193,0.00000000,
8.3040,-0.6386,-0.6675,0.3390,-0.6108,-0.3503,-0.3774,0.0629,0.0575,0.1662,848.7864,26.2800,23.9400,-27.6000,119.908,42.713,62.037,49.17428527,-121.67773193,0.00000000,
8.3070,-0.6386,-0.6675,0.3390,-0.6108,-0.3503,-0.3774,0.1193,0.0394,-0.0905,848.7864,26.2800,23.9400,-27.6000,119.908,42.713,62.037,49.17428527,-121.67773193,0.00000000,
8.3210,-0.6386,-0.6675,0.3390,-0.5107,0.3553,-0.6229,0.1193,0.0394,-0.0905,848.7864,26.2800,23.9400,-27.6000,119.908,42.713,62.037,49.17428527,-121.67773193,0.00000000,
8.3410,-0.6386,-0.6675,0.3390,-0.5107,0.3553,-0.6229,0.1193,0.0394,-0.0905,848.9126,26.2800,23.9400,-27.6000,119.908,42.713,62.037,49.17428527,-121.67773193,0.00000000,
8.3440,-0.6386,-0.6675,0.3390,-0.5107,0.3553,-0.6229,0.1193,0.0394,-0.0905,848.9126,26.2800,23.9400,-27.6000,119.908,42.713,62.037,49.17428527,-121.67773193,0.00000000,
8.3620,-0.6025,-0.5971,0.3473,-0.5107,0.3553,-0.6229,0.1193,0.0394,-0.0905,848.9126,26.2800,23.9400,-27.6000,117.650,40.652,60.035,49.17428527,-121.67773193,0.00000000,
8.3650,-0.6025,-0.5971,0.3473,-0.5107,0.3553,-0.6229,0.1193,0.0394,-0.0905,848.9126,25.6800,23.7600,-29.2800,115.551,40.652,60.035,49.17428527,-121.67773193,0.00000000,
8.3680,-0.6025,-0.5971,0.3473,-0.5107,0.3553,-0.6229,-0.2578,-0.1055,-0.1736,848.9126,25.6800,23.7600,-29.2800,115.551,40.652,60.035,49.17428527,-121.67773193,0.00000000,
8.3830,-0.6025,-0.5971,0.3473,-0.2593,1.1845,-0.4424,-0.2578,-0.1055,-0.1736,848.9126,25.6800,23.7600,-29.2800,115.551,40.652,60.035,49.17428527,-121.67773193,0.00000000,
8.4210,-0.5121,-0.5835,0.3376,-0.2593,1.1845,-0.4424,-0.2578,-0.1055,-0.1736,848.9126,25.6800,23.7600,-29.2800,130.059,43.571,56.606,49.17428527,-121.67773193,0.00000000,
8.4240,-0.5121,-0.5835,0.3376,-0.2593,1.1845,-0.4424,-0.2578,-0.1055,-0.1736,848.9126,25.0800,23.5200,-30.8400,127.275,43.571,56.606,49.17428527,-121.67773193,0.00000000,
8.4270,-0.5121,-0.5835,0.3376,-0.2593,1.1845,-0.4424,-0.5923,-0.3388,-0.3984,848.9126,25.0800,23.5200,-30.8400,127.275,43.571,56.606,49.17428527,-121.67773193,0.00000000,
8.4400,-0.5121,-0.5835,0.3376,0.3564,1.6152,-0.3670,-0.5923,-0.3388,-0.3984,848.9126,25.0800,23.5200,-30.8400,127.275,43.571,56.606,49.17428527,-121.67773193,0.00000000,
8.4780,-0.4339,-0.7208,0.3395,0.3564,1.6152,-0.3670,-0.5923,-0.3388,-0.3984,848.9126,25.0800,23.5200,-30.8400,151.854,52.606,51.956,49.17428527,-121.67773193,0.00000000,
8.4800,-0.4339,-0.7208,0.3395,0.3564,1.6152,-0.3670,-0.5923,-0.3388,-0.3984,848.9126,24.4200,23.3400,-32.3400,148.403,52.606,51.956,49.17428527,-121.67773193,0.00000000,
8.4820,-0.4339,-0.7208,0.3395,0.3564,1.6152,-0.3670,-0.9076,-0.3196,-0.6029,848.9126,24.4200,23.3400,-32.3400,148.403,52.606,51.956,49.17428527,-121.67773193,0.00000000,
8.4990,-0.4339,-0.7208,0.3395,0.7400,0.6824,-0.0266,-0.9076,-0.3196,-0.6029,848.9126,24.4200,23.3400,-32.3400,148.403,52.606,51.956,49.17428527,-121.67773193,0.00000000,
8.5170,-0.4339,-0.7208,0.3395,0.7400,0.6824,-0.0266,-0.9076,-0.3196,-0.6029,848.9014,24.4200,23.3400,-32.3400,148.403,52.606,51.956,49.17428527,-121.67773193,0.00000000,
8.5180,-0.4339,-0.7208,0.3395,0.7400,0.6824,-0.0266,-0.9076,-0.3196,-0.6029,848.9014,24.4200,23.3400,-32.3400,148.403,52.606,51.956,49.17428527,-121.67773193,0.00000000,
8.5390,-0.4466,-0.9201,0.3522,0.7400,0.6824,-0.0266,-0.9076,-0.3196,-0.6029,848.9014,24.4200,23.3400,-32.3400,154.017,58.277,51.737,49.17428527,-121.67773193,0.00000000,
8.5410,-0.4466,-0.9201,0.3522,0.7400,0.6824,-0.0266,-0.9076,-0.3196,-0.6029,848.9014,23.7000,23.1000,-33.7800,151.118,58.277,51.737,49.17428527,-121.67773193,0.00000000,
8.5420,-0.4466,-0.9201,0.3522,0.7400,0.6824,-0.0266,-0.7169,-0.0767,-0.5774,848.9014,23.7000,23.1000,-33.7800,151.118,58.277,51.737,49.17428527,-121.67773193,0.00000000,
8.5620,-0.4466,-0.9201,0.3522,0.2883,-0.9740,0.3349,-0.7169,-0.0767,-0.5774,848.9014,23.7000,23.1000,-33.7800,151.118,58.277,51.737,49.17428527,-121.67773193,0.00000000,
8.6050,-0.5360,-0.7999,0.4001,0.2883,-0.9740,0.3349,-0.7169,-0.0767,-0.5774,848.9014,23.7000,23.1000,-33.7800,139.794,50.098,53.260,49.17428527,-121.67773193,0.00000000,
8.6110,-0.5360,-0.7999,0.4001,0.2883,-0.9740,0.3349,-0.7169,-0.0767,-0.5774,848.9014,22.9800,22.8600,-35.1600,137.229,50.098,53.260,49.17428527,-121.67773193,0.00000000,
8.6210,-0.5360,-0.7999,0.4001,0.2883,-0.9740,0.3349,-0.3846,0.2376,-0.4527,848.9014,22.9800,22.8600,-35.1600,137.229,50.098,53.260,49.17428527,-121.67773193,0.00000000,
8.6280,-0.5360,-0.7999,0.4001,-0.6759,0.3330,1.0167,-0.3846,0.2376,-0.4527,848.9014,22.9800,22.8600,-35.1600,137.229,50.098,53.260,49.17428527,-121.67773193,0.00000000,
8.6680,-0.6127,-0.8566,0.4070,-0.6759,0.3330,1.0167,-0.3846,0.2376,-0.4527,848.9014,22.9800,22.8600,-35.1600,130.962,49.348,56.409,49.17428527,-121.67773193,0.00000000,
8.6740,-0.6127,-0.8566,0.4070,-0.6759,0.3330,1.0167,-0.3846,0.2376,-0.4527,848.9014,22.0800,21.9600,-36.4800,129.463,49.348,56.409,49.17428527,-121.67773193,0.00000000,
8.6780,-0.6127,-0.8566,0.4070,-0.6759,0.3330,1.0167,-0.4559,-0.0597,-0.4410,848.9014,22.0800,21.9600,-36.4800,129.463,49.348,56.409,49.17428527,-121.67773193,0.00000000,
8.6800,-0.6127,-0.8566,0.4070,-1.6681,-0.0327,1.2602,-0.4559,-0.0597,-0.4410,848.9014,22.0800,21.9600,-36.4800,129.463,49.348,56.409,49.17428527,-121.67773193,0.00000000,
8.6970,-0.6127,-0.8566,0.4070,-1.6681,-0.0327,1.2602,-0.4559,-0.0597,-0.4410,848.8857,22.0800,21.9600,-36.4800,129.463,49.348,56.409,49.17428527,-121.67773193,0.00000000,
8.6990,-0.6127,-0.8566,0.4070,-1.6681,-0.0327,1.2602,-0.4559,-0.0597,-0.4410,848.8857,22.0800,21.9600,-36.4800,129.463,49.348,56.409,49.17428527,-121.67773193,0.00000000,
8.7180,-0.4300,-0.9499,0.3742,-1.6681,-0.0327,1.2602,-0.4559,-0.0597,-0.4410,848.8857,22.0800,21.9600,-36.4800,151.026,59.033,48.967,49.17428527,-121.67773193,0.00000000,
8.7190,-0.4300,-0.9499,0.3742,-1.6681,-0.0327,1.2602,-0.4559,-0.0597,-0.4410,848.8857,21.1800,21.1800,-37.6800,148.842,59.033,48.967,49.17428527,-121.67773193,0.00000000,
8.7210,-0.4300,-0.9499,0.3742,-1.6681,-0.0327,1.2602,-0.1587,-0.4645,-0.4922,848.8857,21.1800,21.1800,-37.6800,148.842,59.033,48.967,49.17428527,-121.67773193,0.00000000,
8.7390,-0.4300,-0.9499,0.3742,-0.2422,-0.8476,0.7014,-0.1587,-0.4645,-0.4922,848.8857,21.1800,21.1800,-37.6800,148.842,59.033,48.967,49.17428527,-121.67773193,0.00000000,
8.7790,-0.4613,-0.7095,0.3322,-0.2422,-0.8476,0.7014,-0.1587,-0.4645,-0.4922,848.8857,21.1800,21.1800,-37.6800,133.645,51.301,54.238,49.17428527,-121.67773193,0.00000000,
8.7820,-0.4613,-0.7095,0.3322,-0.2422,-0.8476,0.7014,-0.1587,-0.4645,-0.4922,848.8857,20.3400,20.5800,-38.7000,132.149,51.301,54.238,49.17428527,-121.67773193,0.00000000,
8.7840,-0.4613,-0.7095,0.3322,-0.2422,-0.8476,0.7014,0.1630,-0.6637,-0.3462,848.8857,20.3400,20.5800,-38.7000,132.149,51.301,54.238,49.17428527,-121.67773193,0.00000000,
8.7980,-0.4613,-0.7095,0.3322,-0.7427,1.5240,0.0876,0.1630,-0.6637,-0.3462,848.8857,20.3400,20.5800,-38.7000,132.149,51.301,54.238,49.17428527,-121.67773193,0.00000000,
8.8390,-0.4642,-0.8263,0.2613,-0.7427,1.5240,0.0876,0.1630,-0.6637,-0.3462,848.8857,20.3400,20.5800,-38.7000,129.688,57.191,60.619,49.17428527,-121.67773193,0.00000000,
8.8430,-0.4642,-0.8263,0.2613,-0.7427,1.5240,0.0876,0.1630,-0.6637,-0.3462,848.8857,20.0400,20.6400,-38.5200,129.229,57.191,60.619,49.17428527,-121.67773193,0.00000000,
8.8460,-0.4642,-0.8263,0.2613,-0.7427,1.5240,0.0876,0.0075,-0.7776,-0.1459,848.8857,20.0400,20.6400,-38.5200,129.229,57.191,60.619,49.17428527,-121.67773193,0.00000000,
8.8590,-0.4642,-0.8263,0.2613,-0.8889,0.3890,-0.7172,0.0075,-0.7776,-0.1459,848.8857,20.0400,20.6400,-38.5200,129.229,57.191,60.619,49.17428527,-121.67773193,0.00000000,
8.8780,-0.4642,-0.8263,0.2613,-0.8889,0.3890,-0.7172,0.0075,-0.7776,-0.1459,848.9238,20.0400,20.6400,-38.5200,129.229,57.191,60.619,49.17428527,-121.67773193,0.00000000,
8.8810,-0.4642,-0.8263,0.2613,-0.8889,0.3890,-0.7172,0.0075,-0.7776,-0.1459,848.9238,20.0400,20.6400,-38.5200,129.229,57.191,60.619,49.17428527,-121.67773193,0.00000000,
8.8990,-0.3968,-0.8781,0.3097,-0.8889,0.3890,-0.7172,0.0075,-0.7776,-0.1459,848.9238,20.0400,20.6400,-38.5200,143.086,60.179,52.023,49.17428527,-121.67773193,0.00000000,
8.9020,-0.3968,-0.8781,0.3097,-0.8889,0.3890,-0.7172,0.0075,-0.7776,-0.1459,848.9238,19.9800,21.2400,-38.0400,142.921,60.179,52.023,49.17428527,-121.67773193,0.00000000,
8.9050,-0.3968,-0.8781,0.3097,-0.8889,0.3890,-0.7172,0.0011,-0.9609,0.1225,848.9238,19.9800,21.2400,-38.0400,142.921,60.179,52.023,49.17428527,-121.67773193,0.00000000,
8.9200,-0.3968,-0.8781,0.3097,-0.3589,-0.1343,-0.4224,0.0011,-0.9609,0.1225,848.9238,19.9800,21.2400,-38.0400,142.921,60.179,52.023,49.17428527,-121.67773193,0.00000000,
8.9580,-0.3430,-0.8507,0.4382,-0.3589,-0.1343,-0.4224,0.0011,-0.9609,0.1225,848.9238,19.9800,21.2400,-38.0400,162.006,56.810,38.051,49.17428527,-121.67773193,0.00000000,
8.9620,-0.3430,-0.8507,0.4382,-0.3589,-0.1343,-0.4224,0.0011,-0.9609,0.1225,848.9238,19.8000,21.9000,-37.5600,161.790,56.810,38.051,49.17428527,-121.67773193,0.00000000,
8.9650,-0.3430,-0.8507,0.4382,-0.3589,-0.1343,-0.4224,0.1161,-0.5305,0.3036,848.9238,19.8000,21.9000,-37.5600,161.790,56.810,38.051,49.17428527,-121.67773193,0.00000000,
8.9840,-0.3430,-0.8507,0.4382,0.2542,0.0317,0.6810,0.1161,-0.5305,0.3036,848.9238,19.8000,21.9000,-37.5600,161.790,56.810,38.051,49.17428527,-121.67773193,0.00000000,
9.0200,-0.4163,-0.8312,0.3556,0.2542,0.0317,0.6810,0.1161,-0.5305,0.3036,848.9238,19.8000,21.9000,-37.5600,143.090,56.626,49.492,49.17428527,-121.67773193,0.00000000,
9.0220,-0.4163,-0.8312,0.3556,0.2542,0.0317,0.6810,0.1161,-0.5305,0.3036,848.9238,19.5000,22.5600,-37.1400,142.258,56.626,49.492,49.17428527,-121.67773193,0.00000000,
9.0250,-0.4163,-0.8312,0.3556,0.2542,0.0317,0.6810,-0.1055,0.0383,0.5657,848.9238,19.5000,22.5600,-37.1400,142.258,56.626,49.492,49.17428527,-121.67773193,0.00000000,
9.0380,-0.4163,-0.8312,0.3556,-0.1529,0.1328,-0.0100,-0.1055,0.0383,0.5657,848.9238,19.5000,22.5600,-37.1400,142.258,56.626,49.492,49.17428527,-121.67773193,0.00000000,
9.0580,-0.4163,-0.8312,0.3556,-0.1529,0.1328,-0.0100,-0.1055,0.0383,0.5657,848.9172,19.5000,22.5600,-37.1400,142.258,56.626,49.492,49.17428527,-121.67773193,0.00000000,
9.0630,-0.4163,-0.8312,0.3556,-0.1529,0.1328,-0.0100,-0.1055,0.0383,0.5657,848.9172,19.5000,22.5600,-37.1400,142.258,56.626,49.492,49.17428527,-121.67773193,0.00000000,
