
time,gFx,gFy,gFz,ax,ay,az,wx,wy,wz,p,Bx,By,Bz,I,Azimuth,Pitch,Roll,Latitude,Longitude,Speed (m/s),
0.0160,0.2516,0.5184,0.7319,0.3108,-0.2705,-0.7584,0.4027,0.1715,0.0724,849.0686,7.8600,-27.9000,-45.1800,14325.0000,-92.141,-33.813,-18.974,49.17435623,-121.67775008,0.00000000,
0.0380,0.2296,0.5076,0.7842,0.3108,-0.2705,-0.7584,0.4027,0.1715,0.0724,849.0686,7.8600,-27.9000,-45.1800,14325.0000,-95.600,-31.850,-16.323,49.17435623,-121.67775008,0.00000000,
0.0390,0.2296,0.5076,0.7842,0.3108,-0.2705,-0.7584,0.4027,0.1715,0.0724,849.0686,7.8000,-27.7200,-45.3600,14325.0000,-94.892,-31.850,-16.323,49.17435623,-121.67775008,0.00000000,
0.0400,0.2296,0.5076,0.7842,0.3108,-0.2705,-0.7584,-0.1364,0.0479,-0.0373,849.0686,7.8000,-27.7200,-45.3600,14325.0000,-94.892,-31.850,-16.323,49.17435623,-121.67775008,0.00000000,
0.0560,0.2296,0.5076,0.7842,0.3108,-0.2705,-0.7584,-0.1364,0.0479,-0.0373,848.8381,7.8000,-27.7200,-45.3600,14325.0000,-94.892,-31.850,-16.323,49.17435623,-121.67775008,0.00000000,
0.0590,0.2296,0.5076,0.7842,0.3108,-0.2705,-0.7584,-0.1364,0.0479,-0.0373,848.8381,7.8000,-27.7200,-45.3600,13502.0000,-94.892,-31.850,-16.323,49.17435623,-121.67775008,0.00000000,
0.0770,0.2296,0.5076,0.7842,0.2050,-0.3386,-0.3000,-0.1364,0.0479,-0.0373,848.8381,7.8000,-27.7200,-45.3600,13502.0000,-94.892,-31.850,-16.323,49.17435623,-121.67775008,0.00000000,
0.1000,0.2296,0.4866,0.7724,0.2050,-0.3386,-0.3000,-0.1364,0.0479,-0.0373,848.8381,7.8000,-27.7200,-45.3600,13502.0000,-96.720,-31.125,-16.557,49.17435623,-121.67775008,0.00000000,
0.1020,0.2296,0.4866,0.7724,0.2050,-0.3386,-0.3000,-0.1364,0.0479,-0.0373,848.8381,7.6800,-27.4800,-45.4800,13502.0000,-95.959,-31.125,-16.557,49.17435623,-121.67775008,0.00000000,
0.1040,0.2296,0.4866,0.7724,0.2050,-0.3386,-0.3000,-0.2407,-0.1811,-0.0405,848.8381,7.6800,-27.4800,-45.4800,13502.0000,-95.959,-31.125,-16.557,49.17435623,-121.67775008,0.00000000,
0.1370,0.2296,0.4866,0.7724,0.0856,-0.4438,-0.4497,-0.2407,-0.1811,-0.0405,848.8381,7.6800,-27.4800,-45.4800,13502.0000,-95.959,-31.125,-16.557,49.17435623,-121.67775008,0.00000000,
0.1600,0.2111,0.5403,0.8042,0.0856,-0.4438,-0.4497,-0.2407,-0.1811,-0.0405,848.8381,7.6800,-27.4800,-45.4800,13502.0000,-90.401,-33.020,-14.707,49.17435623,-121.67775008,0.00000000,
0.1620,0.2111,0.5403,0.8042,0.0856,-0.4438,-0.4497,-0.2407,-0.1811,-0.0405,848.8381,7.5600,-27.3000,-45.6000,13502.0000,-89.703,-33.020,-14.707,49.17435623,-121.67775008,0.00000000,
0.1640,0.2111,0.5403,0.8042,0.0856,-0.4438,-0.4497,-0.2823,-0.1182,-0.0756,848.8381,7.5600,-27.3000,-45.6000,13502.0000,-89.703,-33.020,-14.707,49.17435623,-121.67775008,0.00000000,
0.1990,0.2111,0.5403,0.8042,-0.1094,0.1779,-0.1959,-0.2823,-0.1182,-0.0756,848.8381,7.5600,-27.3000,-45.6000,13502.0000,-89.703,-33.020,-14.707,49.17435623,-121.67775008,0.00000000,
0.2190,0.2511,0.5203,0.7881,-0.1094,0.1779,-0.1959,-0.2823,-0.1182,-0.0756,848.8381,7.5600,-27.3000,-45.6000,13502.0000,-93.252,-32.172,-17.676,49.17435623,-121.67775008,0.00000000,
0.2210,0.2511,0.5203,0.7881,-0.1094,0.1779,-0.1959,-0.2823,-0.1182,-0.0756,848.8381,7.3200,-27.0600,-45.7800,13502.0000,-92.367,-32.172,-17.676,49.17435623,-121.67775008,0.00000000,
0.2230,0.2511,0.5203,0.7881,-0.1094,0.1779,-0.1959,-0.4623,-0.4389,0.0405,848.8381,7.3200,-27.0600,-45.7800,13502.0000,-92.367,-32.172,-17.676,49.17435623,-121.67775008,0.00000000,
0.2390,0.2511,0.5203,0.7881,-0.1094,0.1779,-0.1959,-0.4623,-0.4389,0.0405,848.8818,7.3200,-27.0600,-45.7800,13502.0000,-92.367,-32.172,-17.676,49.17435623,-121.67775008,0.00000000,
0.2410,0.2511,0.5203,0.7881,-0.1094,0.1779,-0.1959,-0.4623,-0.4389,0.0405,848.8818,7.3200,-27.0600,-45.7800,14599.0000,-92.367,-32.172,-17.676,49.17435623,-121.67775008,0.00000000,
0.2560,0.2511,0.5203,0.7881,0.0924,0.1343,-0.3954,-0.4623,-0.4389,0.0405,848.8818,7.3200,-27.0600,-45.7800,14599.0000,-92.367,-32.172,-17.676,49.17435623,-121.67775008,0.00000000,
0.2780,0.2072,0.4954,0.8604,0.0924,0.1343,-0.3954,-0.4623,-0.4389,0.0405,848.8818,7.3200,-27.0600,-45.7800,14599.0000,-98.638,-29.239,-13.538,49.17435623,-121.67775008,0.00000000,
0.2840,0.2072,0.4954,0.8604,0.0924,0.1343,-0.3954,-0.4623,-0.4389,0.0405,848.8818,6.9600,-26.8800,-45.9000,14599.0000,-97.977,-29.239,-13.538,49.17435623,-121.67775008,0.00000000,
0.2860,0.2072,0.4954,0.8604,0.0924,0.1343,-0.3954,-0.3462,-0.2450,0.1928,848.8818,6.9600,-26.8800,-45.9000,14599.0000,-97.977,-29.239,-13.538,49.17435623,-121.67775008,0.00000000,
0.3160,0.2072,0.4954,0.8604,-0.4808,0.1092,0.2255,-0.3462,-0.2450,0.1928,848.8818,6.9600,-26.8800,-45.9000,14599.0000,-97.977,-29.239,-13.538,49.17435623,-121.67775008,0.00000000,
0.3390,0.0479,0.4925,0.8487,-0.4808,0.1092,0.2255,-0.3462,-0.2450,0.1928,848.8818,6.9600,-26.8800,-45.9000,14599.0000,-92.893,-30.086,-3.229,49.17435623,-121.67775008,0.00000000,
0.3400,0.0479,0.4925,0.8487,-0.4808,0.1092,0.2255,-0.3462,-0.2450,0.1928,848.8818,6.6000,-26.7000,-46.0800,14599.0000,-91.408,-30.086,-3.229,49.17435623,-121.67775008,0.00000000,
0.3420,0.0479,0.4925,0.8487,-0.4808,0.1092,0.2255,0.5774,1.0237,0.5507,848.8818,6.6000,-26.7000,-46.0800,14599.0000,-91.408,-30.086,-3.229,49.17435623,-121.67775008,0.00000000,
0.3770,0.0479,0.4925,0.8487,-1.6064,-0.0838,0.0855,0.5774,1.0237,0.5507,848.8818,6.6000,-26.7000,-46.0800,14599.0000,-91.408,-30.086,-3.229,49.17435623,-121.67775008,0.00000000,
0.4000,0.2531,0.5193,0.7084,-1.6064,-0.0838,0.0855,0.5774,1.0237,0.5507,848.8818,6.6000,-26.7000,-46.0800,14599.0000,-86.263,-34.619,-19.660,49.17435623,-121.67775008,0.00000000,
0.4030,0.2531,0.5193,0.7084,-1.6064,-0.0838,0.0855,0.5774,1.0237,0.5507,848.8818,6.2400,-26.5200,-46.2600,14599.0000,-85.382,-34.619,-19.660,49.17435623,-121.67775008,0.00000000,
0.4080,0.2531,0.5193,0.7084,-1.6064,-0.0838,0.0855,0.9811,0.9790,1.1484,848.8818,6.2400,-26.5200,-46.2600,14599.0000,-85.382,-34.619,-19.660,49.17435623,-121.67775008,0.00000000,
0.4160,0.2531,0.5193,0.7084,-1.6064,-0.0838,0.0855,0.9811,0.9790,1.1484,848.8896,6.2400,-26.5200,-46.2600,14599.0000,-85.382,-34.619,-19.660,49.17435623,-121.67775008,0.00000000,
0.4170,0.2531,0.5193,0.7084,-1.6064,-0.0838,0.0855,0.9811,0.9790,1.1484,848.8896,6.2400,-26.5200,-46.2600,14874.0000,-85.382,-34.619,-19.660,49.17435623,-121.67775008,0.00000000,
0.4360,0.2531,0.5193,0.7084,0.5085,-0.2126,-1.0680,0.9811,0.9790,1.1484,848.8896,6.2400,-26.5200,-46.2600,14874.0000,-85.382,-34.619,-19.660,49.17435623,-121.67775008,0.00000000,
0.4580,0.2228,0.4719,0.8819,0.5085,-0.2126,-1.0680,0.9811,0.9790,1.1484,848.8896,6.2400,-26.5200,-46.2600,14874.0000,-101.664,-27.422,-14.179,49.17435623,-121.67775008,0.00000000,
0.4600,0.2228,0.4719,0.8819,0.5085,-0.2126,-1.0680,0.9811,0.9790,1.1484,848.8896,5.8800,-26.2800,-46.4400,14874.0000,-100.789,-27.422,-14.179,49.17435623,-121.67775008,0.00000000,
0.4620,0.2228,0.4719,0.8819,0.5085,-0.2126,-1.0680,0.3057,1.4477,0.7436,848.8896,5.8800,-26.2800,-46.4400,14874.0000,-100.789,-27.422,-14.179,49.17435623,-121.67775008,0.00000000,
0.4960,0.2228,0.4719,0.8819,0.5287,-0.7226,0.5904,0.3057,1.4477,0.7436,848.8896,5.8800,-26.2800,-46.4400,14874.0000,-100.789,-27.422,-14.179,49.17435623,-121.67775008,0.00000000,
0.5180,0.1764,0.5281,0.8931,0.5287,-0.7226,0.5904,0.3057,1.4477,0.7436,848.8896,5.8800,-26.2800,-46.4400,14874.0000,-91.713,-30.119,-11.172,49.17435623,-121.67775008,0.00000000,
0.5200,0.1764,0.5281,0.8931,0.5287,-0.7226,0.5904,0.3057,1.4477,0.7436,848.8896,5.5800,-26.1600,-46.5600,14874.0000,-90.986,-30.119,-11.172,49.17435623,-121.67775008,0.00000000,
0.5210,0.1764,0.5281,0.8931,0.5287,-0.7226,0.5904,0.4698,0.7979,0.6988,848.8896,5.5800,-26.1600,-46.5600,14874.0000,-90.986,-30.119,-11.172,49.17435623,-121.67775008,0.00000000,
0.5560,0.1764,0.5281,0.8931,0.2546,-0.3342,0.7752,0.4698,0.7979,0.6988,848.8896,5.5800,-26.1600,-46.5600,14874.0000,-90.986,-30.119,-11.172,49.17435623,-121.67775008,0.00000000,
0.5840,0.0078,0.4631,0.6786,0.2546,-0.3342,0.7752,0.4698,0.7979,0.6988,848.8896,5.5800,-26.1600,-46.5600,14874.0000,-53.057,-34.311,-0.660,49.17435623,-121.67775008,0.00000000,
0.5890,0.0078,0.4631,0.6786,0.2546,-0.3342,0.7752,0.4698,0.7979,0.6988,848.8896,5.2200,-26.0400,-46.6800,14874.0000,-50.369,-34.311,-0.660,49.17435623,-121.67775008,0.00000000,
0.5920,0.0078,0.4631,0.6786,0.2546,-0.3342,0.7752,1.1803,1.5713,1.2602,848.8896,5.2200,-26.0400,-46.6800,14874.0000,-50.369,-34.311,-0.660,49.17435623,-121.67775008,0.00000000,
0.6000,0.0078,0.4631,0.6786,0.2546,-0.3342,0.7752,1.1803,1.5713,1.2602,848.8147,5.2200,-26.0400,-46.6800,14874.0000,-50.369,-34.311,-0.660,49.17435623,-121.67775008,0.00000000,
0.6030,0.0078,0.4631,0.6786,0.2546,-0.3342,0.7752,1.1803,1.5713,1.2602,848.8147,5.2200,-26.0400,-46.6800,15163.0000,-50.369,-34.311,-0.660,49.17435623,-121.67775008,0.00000000,
0.6160,0.0078,0.4631,0.6786,-0.9305,-1.3379,-1.1354,1.1803,1.5713,1.2602,848.8147,5.2200,-26.0400,-46.6800,15163.0000,-50.369,-34.311,-0.660,49.17435623,-121.67775008,0.00000000,
0.6370,0.1402,0.4729,0.8408,-0.9305,-1.3379,-1.1354,1.1803,1.5713,1.2602,848.8147,5.2200,-26.0400,-46.6800,15163.0000,-93.793,-29.020,-9.468,49.17435623,-121.67775008,0.00000000,
0.6410,0.1402,0.4729,0.8408,-0.9305,-1.3379,-1.1354,1.1803,1.5713,1.2602,848.8147,5.1000,-26.1600,-46.6800,15163.0000,-94.256,-29.020,-9.468,49.17435623,-121.67775008,0.00000000,
0.6520,0.1402,0.4729,0.8408,-0.9305,-1.3379,-1.1354,0.1097,1.2027,0.9758,848.8147,5.1000,-26.1600,-46.6800,15163.0000,-94.256,-29.020,-9.468,49.17435623,-121.67775008,0.00000000,
0.6750,0.1402,0.4729,0.8408,0.3413,-1.3539,0.5434,0.1097,1.2027,0.9758,848.8147,5.1000,-26.1600,-46.6800,15163.0000,-94.256,-29.020,-9.468,49.17435623,-121.67775008,0.00000000,
0.7000,0.0044,0.3962,0.8418,0.3413,-1.3539,0.5434,0.1097,1.2027,0.9758,848.8147,5.1000,-26.1600,-46.6800,15163.0000,-125.438,-25.204,-0.299,49.17435623,-121.67775008,0.00000000,
0.7010,0.0044,0.3962,0.8418,0.3413,-1.3539,0.5434,0.1097,1.2027,0.9758,848.8147,5.0400,-26.4000,-46.5600,15163.0000,-127.617,-25.204,-0.299,49.17435623,-121.67775008,0.00000000,
0.7030,0.0044,0.3962,0.8418,0.3413,-1.3539,0.5434,-0.4975,1.5777,0.8096,848.8147,5.0400,-26.4000,-46.5600,15163.0000,-127.617,-25.204,-0.299,49.17435623,-121.67775008,0.00000000,
0.7350,0.0044,0.3962,0.8418,-0.6304,-1.8299,0.3074,-0.4975,1.5777,0.8096,848.8147,5.0400,-26.4000,-46.5600,15163.0000,-127.617,-25.204,-0.299,49.17435623,-121.67775008,0.00000000,
0.7560,-0.0298,0.5428,0.9298,-0.6304,-1.8299,0.3074,-0.4975,1.5777,0.8096,848.8147,5.0400,-26.4000,-46.5600,15163.0000,-78.335,-30.263,1.836,49.17435623,-121.67775008,0.00000000,
0.7570,-0.0298,0.5428,0.9298,-0.6304,-1.8299,0.3074,-0.4975,1.5777,0.8096,848.8147,5.0400,-26.7000,-46.4400,15163.0000,-83.372,-30.263,1.836,49.17435623,-121.67775008,0.00000000,
0.7580,-0.0298,0.5428,0.9298,-0.6304,-1.8299,0.3074,-0.5784,2.3212,1.0088,848.8147,5.0400,-26.7000,-46.4400,15163.0000,-83.372,-30.263,1.836,49.17435623,-121.67775008,0.00000000,
0.7740,-0.0298,0.5428,0.9298,-0.6304,-1.8299,0.3074,-0.5784,2.3212,1.0088,848.8972,5.0400,-26.7000,-46.4400,15163.0000,-83.372,-30.263,1.836,49.17435623,-121.67775008,0.00000000,
0.7750,-0.0298,0.5428,0.9298,-0.6304,-1.8299,0.3074,-0.5784,2.3212,1.0088,848.8972,5.0400,-26.7000,-46.4400,17718.0000,-83.372,-30.263,1.836,49.17435623,-121.67775008,0.00000000,
0.7950,-0.0298,0.5428,0.9298,-0.2959,-0.1202,0.9520,-0.5784,2.3212,1.0088,848.8972,5.0400,-26.7000,-46.4400,17718.0000,-83.372,-30.263,1.836,49.17435623,-121.67775008,0.00000000,
0.8160,-0.1847,0.6107,0.7930,-0.2959,-0.1202,0.9520,-0.5784,2.3212,1.0088,848.8972,5.0400,-26.7000,-46.4400,17718.0000,41.025,-36.873,13.112,49.17435623,-121.67775008,0.00000000,
0.8170,-0.1847,0.6107,0.7930,-0.2959,-0.1202,0.9520,-0.5784,2.3212,1.0088,848.8972,5.2200,-27.1800,-46.2000,17718.0000,42.127,-36.873,13.112,49.17435623,-121.67775008,0.00000000,
0.8200,-0.1847,0.6107,0.7930,-0.2959,-0.1202,0.9520,0.9396,0.1321,-0.2855,848.8972,5.2200,-27.1800,-46.2000,17718.0000,42.127,-36.873,13.112,49.17435623,-121.67775008,0.00000000,
0.8560,-0.1847,0.6107,0.7930,-1.2539,0.3131,-0.2097,0.9396,0.1321,-0.2855,848.8972,5.2200,-27.1800,-46.2000,17718.0000,42.127,-36.873,13.112,49.17435623,-121.67775008,0.00000000,
0.8910,0.0801,0.5589,0.5897,-1.2539,0.3131,-0.2097,0.9396,0.1321,-0.2855,848.8972,5.2200,-27.1800,-46.2000,17718.0000,-45.886,-43.203,-7.738,49.17435623,-121.67775008,0.00000000,
0.9020,0.0801,0.5589,0.5897,-1.2539,0.3131,-0.2097,0.9396,0.1321,-0.2855,848.8972,5.7600,-27.7200,-45.7800,17718.0000,-49.005,-43.203,-7.738,49.17435623,-121.67775008,0.00000000,
0.9110,0.0801,0.5589,0.5897,-1.2539,0.3131,-0.2097,0.4229,-0.4474,0.5422,848.8972,5.7600,-27.7200,-45.7800,17718.0000,-49.005,-43.203,-7.738,49.17435623,-121.67775008,0.00000000,
0.9190,0.0801,0.5589,0.5897,1.1937,-0.6514,-1.8658,0.4229,-0.4474,0.5422,848.8972,5.7600,-27.7200,-45.7800,17718.0000,-49.005,-43.203,-7.738,49.17435623,-121.67775008,0.00000000,
0.9400,0.1207,0.5584,0.5105,1.1937,-0.6514,-1.8658,0.4229,-0.4474,0.5422,848.8972,5.7600,-27.7200,-45.7800,17718.0000,-52.182,-46.788,-13.300,49.17435623,-121.67775008,0.00000000,
0.9440,0.1207,0.5584,0.5105,1.1937,-0.6514,-1.8658,0.4229,-0.4474,0.5422,848.8972,6.3600,-28.3800,-45.1800,17718.0000,-55.150,-46.788,-13.300,49.17435623,-121.67775008,0.00000000,
0.9490,0.1207,0.5584,0.5105,1.1937,-0.6514,-1.8658,-1.4115,0.0788,-0.1406,848.8972,6.3600,-28.3800,-45.1800,17718.0000,-55.150,-46.788,-13.300,49.17435623,-121.67775008,0.00000000,
0.9580,0.1207,0.5584,0.5105,1.1937,-0.6514,-1.8658,-1.4115,0.0788,-0.1406,848.8684,6.3600,-28.3800,-45.1800,17718.0000,-55.150,-46.788,-13.300,49.17435623,-121.67775008,0.00000000,
0.9610,0.1207,0.5584,0.5105,1.1937,-0.6514,-1.8658,-1.4115,0.0788,-0.1406,848.8684,6.3600,-28.3800,-45.1800,17170.0000,-55.150,-46.788,-13.300,49.17435623,-121.67775008,0.00000000,
0.9760,0.1207,0.5584,0.5105,1.5639,0.7906,-3.6051,-1.4115,0.0788,-0.1406,848.8684,6.3600,-28.3800,-45.1800,17170.0000,-55.150,-46.788,-13.300,49.17435623,-121.67775008,0.00000000,
0.9960,-0.0865,0.2804,0.9835,1.5639,0.7906,-3.6051,-1.4115,0.0788,-0.1406,848.8684,6.3600,-28.3800,-45.1800,17170.0000,-170.904,-15.855,5.025,49.17435623,-121.67775008,0.00000000,
0.9980,-0.0865,0.2804,0.9835,1.5639,0.7906,-3.6051,-1.4115,0.0788,-0.1406,848.8684,7.0200,-28.9800,-44.6400,17170.0000,-168.794,-15.855,5.025,49.17435623,-121.67775008,0.00000000,
1.0000,-0.0865,0.2804,0.9835,1.5639,0.7906,-3.6051,-2.2818,0.5294,-0.4016,848.8684,7.0200,-28.9800,-44.6400,17170.0000,-168.794,-15.855,5.025,49.17435623,-121.67775008,0.00000000,
1.0360,-0.0865,0.2804,0.9835,0.0595,-1.0165,0.6286,-2.2818,0.5294,-0.4016,848.8684,7.0200,-28.9800,-44.6400,17170.0000,-168.794,-15.855,5.025,49.17435623,-121.67775008,0.00000000,
1.0590,-0.1202,0.4944,1.2869,0.0595,-1.0165,0.6286,-2.2818,0.5294,-0.4016,848.8684,7.0200,-28.9800,-44.6400,17170.0000,-165.474,-20.932,5.336,49.17435623,-121.67775008,0.00000000,
1.0620,-0.1202,0.4944,1.2869,0.0595,-1.0165,0.6286,-2.2818,0.5294,-0.4016,848.8684,7.6200,-29.5800,-44.1600,17170.0000,-163.388,-20.932,5.336,49.17435623,-121.67775008,0.00000000,
1.0640,-0.1202,0.4944,1.2869,0.0595,-1.0165,0.6286,-1.1398,1.0834,-0.4879,848.8684,7.6200,-29.5800,-44.1600,17170.0000,-163.388,-20.932,5.336,49.17435623,-121.67775008,0.00000000,
1.0960,-0.1202,0.4944,1.2869,0.8101,1.3355,3.6734,-1.1398,1.0834,-0.4879,848.8684,7.6200,-29.5800,-44.1600,17170.0000,-163.388,-20.932,5.336,49.17435623,-121.67775008,0.00000000,
1.1200,-0.3591,0.3859,1.0695,0.8101,1.3355,3.6734,-1.1398,1.0834,-0.4879,848.8684,7.6200,-29.5800,-44.1600,17170.0000,153.411,-18.885,18.561,49.17435623,-121.67775008,0.00000000,
1.1230,-0.3591,0.3859,1.0695,0.8101,1.3355,3.6734,-1.1398,1.0834,-0.4879,848.8684,8.4000,-30.0000,-43.8000,17170.0000,156.990,-18.885,18.561,49.17435623,-121.67775008,0.00000000,
1.1290,-0.3591,0.3859,1.0695,0.8101,1.3355,3.6734,0.2898,1.2751,-0.8000,848.8684,8.4000,-30.0000,-43.8000,17170.0000,156.990,-18.885,18.561,49.17435623,-121.67775008,0.00000000,
1.1360,-0.3591,0.3859,1.0695,0.8101,1.3355,3.6734,0.2898,1.2751,-0.8000,849.0762,8.4000,-30.0000,-43.8000,17170.0000,156.990,-18.885,18.561,49.17435623,-121.67775008,0.00000000,
1.1400,-0.3591,0.3859,1.0695,0.8101,1.3355,3.6734,0.2898,1.2751,-0.8000,849.0762,8.4000,-30.0000,-43.8000,23894.0000,156.990,-18.885,18.561,49.17435623,-121.67775008,0.00000000,
1.1540,-0.3591,0.3859,1.0695,-0.9752,-0.0397,1.8157,0.2898,1.2751,-0.8000,849.0762,8.4000,-30.0000,-43.8000,23894.0000,156.990,-18.885,18.561,49.17435623,-121.67775008,0.00000000,
1.1760,-0.4280,0.3591,0.9434,-0.9752,-0.0397,1.8157,0.2898,1.2751,-0.8000,849.0762,8.4000,-30.0000,-43.8000,23894.0000,143.557,-19.116,24.403,49.17435623,-121.67775008,0.00000000,
1.1780,-0.4280,0.3591,0.9434,-0.9752,-0.0397,1.8157,0.2898,1.2751,-0.8000,849.0762,9.4200,-30.1800,-43.4400,23894.0000,146.744,-19.116,24.403,49.17435623,-121.67775008,0.00000000,
1.1800,-0.4280,0.3591,0.9434,-0.9752,-0.0397,1.8157,0.7979,0.6679,-0.4069,849.0762,9.4200,-30.1800,-43.4400,23894.0000,146.744,-19.116,24.403,49.17435623,-121.67775008,0.00000000,
1.2140,-0.4280,0.3591,0.9434,-1.0792,-0.6837,0.9511,0.7979,0.6679,-0.4069,849.0762,9.4200,-30.1800,-43.4400,23894.0000,146.744,-19.116,24.403,49.17435623,-121.67775008,0.00000000,
1.2360,-0.4412,0.4636,0.7822,-1.0792,-0.6837,0.9511,0.7979,0.6679,-0.4069,849.0762,9.4200,-30.1800,-43.4400,23894.0000,119.185,-27.305,29.426,49.17435623,-121.67775008,0.00000000,
1.2380,-0.4412,0.4636,0.7822,-1.0792,-0.6837,0.9511,0.7979,0.6679,-0.4069,849.0762,10.5600,-30.3600,-43.0800,23894.0000,121.677,-27.305,29.426,49.17435623,-121.67775008,0.00000000,
1.2400,-0.4412,0.4636,0.7822,-1.0792,-0.6837,0.9511,0.5539,0.8405,-0.1917,849.0762,10.5600,-30.3600,-43.0800,23894.0000,121.677,-27.305,29.426,49.17435623,-121.67775008,0.00000000,
1.2750,-0.4412,0.4636,0.7822,-0.8782,0.2374,-0.4433,0.5539,0.8405,-0.1917,849.0762,10.5600,-30.3600,-43.0800,23894.0000,121.677,-27.305,29.426,49.17435623,-121.67775008,0.00000000,
1.2990,-0.2775,0.3371,0.8223,-0.8782,0.2374,-0.4433,0.5539,0.8405,-0.1917,849.0762,10.5600,-30.3600,-43.0800,23894.0000,162.953,-21.227,18.650,49.17435623,-121.67775008,0.00000000,
1.3020,-0.2775,0.3371,0.8223,-0.8782,0.2374,-0.4433,0.5539,0.8405,-0.1917,849.0762,11.9400,-30.6000,-42.6600,23894.0000,169.450,-21.227,18.650,49.17435623,-121.67775008,0.00000000,
1.3070,-0.2775,0.3371,0.8223,-0.8782,0.2374,-0.4433,0.2322,0.5145,0.0043,849.0762,11.9400,-30.6000,-42.6600,23894.0000,169.450,-21.227,18.650,49.17435623,-121.67775008,0.00000000,
1.3150,-0.2775,0.3371,0.8223,-0.8782,0.2374,-0.4433,0.2322,0.5145,0.0043,849.0505,11.9400,-30.6000,-42.6600,23894.0000,169.450,-21.227,18.650,49.17435623,-121.67775008,0.00000000,
1.3190,-0.2775,0.3371,0.8223,-0.8782,0.2374,-0.4433,0.2322,0.5145,0.0043,849.0505,11.9400,-30.6000,-42.6600,23128.0000,169.450,-21.227,18.650,49.17435623,-121.67775008,0.00000000,
1.3340,-0.2775,0.3371,0.8223,0.9098,-1.0331,0.0464,0.2322,0.5145,0.0043,849.0505,11.9400,-30.6000,-42.6600,23128.0000,169.450,-21.227,18.650,49.17435623,-121.67775008,0.00000000,
1.3550,-0.2531,0.2780,0.7827,0.9098,-1.0331,0.0464,0.2322,0.5145,0.0043,849.0505,11.9400,-30.6000,-42.6600,23128.0000,173.208,-18.670,17.920,49.17435623,-121.67775008,0.00000000,
1.3570,-0.2531,0.2780,0.7827,0.9098,-1.0331,0.0464,0.2322,0.5145,0.0043,849.0505,13.3800,-30.7800,-42.2400,23128.0000,178.984,-18.670,17.920,49.17435623,-121.67775008,0.00000000,
1.3590,-0.2531,0.2780,0.7827,0.9098,-1.0331,0.0464,0.2514,0.2812,-0.1204,849.0505,13.3800,-30.7800,-42.2400,23128.0000,178.984,-18.670,17.920,49.17435623,-121.67775008,0.00000000,
1.4090,-0.2531,0.2780,0.7827,1.1174,-1.5903,-0.3678,0.2514,0.2812,-0.1204,849.0505,13.3800,-30.7800,-42.2400,23128.0000,178.984,-18.670,17.920,49.17435623,-121.67775008,0.00000000,
1.4220,-0.3645,0.3913,0.8731,1.1174,-1.5903,-0.3678,0.2514,0.2812,-0.1204,849.0505,13.3800,-30.7800,-42.2400,23128.0000,161.263,-22.470,22.660,49.17435623,-121.67775008,0.00000000,
1.4240,-0.3645,0.3913,0.8731,1.1174,-1.5903,-0.3678,0.2514,0.2812,-0.1204,849.0505,15.0000,-30.9600,-41.7600,23128.0000,169.106,-22.470,22.660,49.17435623,-121.67775008,0.00000000,
1.4260,-0.3645,0.3913,0.8731,1.1174,-1.5903,-0.3678,-0.0692,0.1779,-0.2684,849.0505,15.0000,-30.9600,-41.7600,23128.0000,169.106,-22.470,22.660,49.17435623,-121.67775008,0.00000000,
1.4540,-0.3645,0.3913,0.8731,0.3286,-0.3498,0.5912,-0.0692,0.1779,-0.2684,849.0505,15.0000,-30.9600,-41.7600,23128.0000,169.106,-22.470,22.660,49.17435623,-121.67775008,0.00000000,
1.4740,-0.3440,0.2604,0.6728,0.3286,-0.3498,0.5912,-0.0692,0.1779,-0.2684,849.0505,15.0000,-30.9600,-41.7600,23128.0000,159.257,-19.013,27.081,49.17435623,-121.67775008,0.00000000,
1.4750,-0.3440,0.2604,0.6728,0.3286,-0.3498,0.5912,-0.0692,0.1779,-0.2684,849.0505,16.6800,-31.1400,-41.2800,23128.0000,165.272,-19.013,27.081,49.17435623,-121.67775008,0.00000000,
1.4770,-0.3440,0.2604,0.6728,0.3286,-0.3498,0.5912,-0.2184,0.7095,-0.3782,849.0505,16.6800,-31.1400,-41.2800,23128.0000,165.272,-19.013,27.081,49.17435623,-121.67775008,0.00000000,
1.4920,-0.3440,0.2604,0.6728,0.3286,-0.3498,0.5912,-0.2184,0.7095,-0.3782,849.0002,16.6800,-31.1400,-41.2800,23128.0000,165.272,-19.013,27.081,49.17435623,-121.67775008,0.00000000,
1.4940,-0.3440,0.2604,0.6728,0.3286,-0.3498,0.5912,-0.2184,0.7095,-0.3782,849.0002,16.6800,-31.1400,-41.2800,22508.0000,165.272,-19.013,27.081,49.17435623,-121.67775008,0.00000000,
1.5140,-0.3440,0.2604,0.6728,1.0103,-1.1473,-1.3626,-0.2184,0.7095,-0.3782,849.0002,16.6800,-31.1400,-41.2800,22508.0000,165.272,-19.013,27.081,49.17435623,-121.67775008,0.00000000,
1.5410,-0.2492,0.2794,0.7187,1.0103,-1.1473,-1.3626,-0.2184,0.7095,-0.3782,849.0002,16.6800,-31.1400,-41.2800,22508.0000,-170.859,-20.171,19.123,49.17435623,-121.67775008,0.00000000,
1.5440,-0.2492,0.2794,0.7187,1.0103,-1.1473,-1.3626,-0.2184,0.7095,-0.3782,849.0002,18.3600,-31.3200,-40.8000,22508.0000,-164.163,-20.171,19.123,49.17435623,-121.67775008,0.00000000,
1.5530,-0.2492,0.2794,0.7187,1.0103,-1.1473,-1.3626,-1.0013,0.5859,-0.4421,849.0002,18.3600,-31.3200,-40.8000,22508.0000,-164.163,-20.171,19.123,49.17435623,-121.67775008,0.00000000,
1.5750,-0.2492,0.2794,0.7187,2.2287,-0.3364,-1.0129,-1.0013,0.5859,-0.4421,849.0002,18.3600,-31.3200,-40.8000,22508.0000,-164.163,-20.171,19.123,49.17435623,-121.67775008,0.00000000,
1.6040,-0.1979,0.1431,0.7006,2.2287,-0.3364,-1.0129,-1.0013,0.5859,-0.4421,849.0002,18.3600,-31.3200,-40.8000,22508.0000,-163.491,-11.121,15.772,49.17435623,-121.67775008,0.00000000,
1.6130,-0.1979,0.1431,0.7006,2.2287,-0.3364,-1.0129,-1.0013,0.5859,-0.4421,849.0002,20.0400,-31.2600,-40.2600,22508.0000,-159.362,-11.121,15.772,49.17435623,-121.67775008,0.00000000,
1.6200,-0.1979,0.1431,0.7006,2.2287,-0.3364,-1.0129,-0.9534,0.5305,-0.9076,849.0002,20.0400,-31.2600,-40.2600,22508.0000,-159.362,-11.121,15.772,49.17435623,-121.67775008,0.00000000,
1.6330,-0.1979,0.1431,0.7006,2.8127,-0.4180,-1.5170,-0.9534,0.5305,-0.9076,849.0002,20.0400,-31.2600,-40.2600,22508.0000,-159.362,-11.121,15.772,49.17435623,-121.67775008,0.00000000,
1.6550,-0.6000,0.1250,1.1687,2.8127,-0.4180,-1.5170,-0.9534,0.5305,-0.9076,849.0002,20.0400,-31.2600,-40.2600,22508.0000,178.805,-5.436,27.176,49.17435623,-121.67775008,0.00000000,
1.6560,-0.6000,0.1250,1.1687,2.8127,-0.4180,-1.5170,-0.9534,0.5305,-0.9076,849.0002,21.8400,-31.0800,-39.7800,22508.0000,-177.292,-5.436,27.176,49.17435623,-121.67775008,0.00000000,
1.6580,-0.6000,0.1250,1.1687,2.8127,-0.4180,-1.5170,-1.5010,-0.0511,-1.4328,849.0002,21.8400,-31.0800,-39.7800,22508.0000,-177.292,-5.436,27.176,49.17435623,-121.67775008,0.00000000,
1.6730,-0.6000,0.1250,1.1687,2.8127,-0.4180,-1.5170,-1.5010,-0.0511,-1.4328,848.8848,21.8400,-31.0800,-39.7800,22508.0000,-177.292,-5.436,27.176,49.17435623,-121.67775008,0.00000000,
1.6740,-0.6000,0.1250,1.1687,2.8127,-0.4180,-1.5170,-1.5010,-0.0511,-1.4328,848.8848,21.8400,-31.0800,-39.7800,22854.0000,-177.292,-5.436,27.176,49.17435623,-121.67775008,0.00000000,
1.6950,-0.6000,0.1250,1.1687,-0.6220,-0.1979,3.2987,-1.5010,-0.0511,-1.4328,848.8848,21.8400,-31.0800,-39.7800,22854.0000,-177.292,-5.436,27.176,49.17435623,-121.67775008,0.00000000,
1.7160,-0.7539,0.0444,0.5032,-0.6220,-0.1979,3.2987,-1.5010,-0.0511,-1.4328,848.8848,21.8400,-31.0800,-39.7800,22854.0000,144.208,-2.804,56.279,49.17435623,-121.67775008,0.00000000,
1.7190,-0.7539,0.0444,0.5032,-0.6220,-0.1979,3.2987,-1.5010,-0.0511,-1.4328,848.8848,23.7000,-30.6000,-39.4200,22854.0000,145.468,-2.804,56.279,49.17435623,-121.67775008,0.00000000,
1.7210,-0.7539,0.0444,0.5032,-0.6220,-0.1979,3.2987,0.3121,0.7649,-1.5042,848.8848,23.7000,-30.6000,-39.4200,22854.0000,145.468,-2.804,56.279,49.17435623,-121.67775008,0.00000000,
1.7540,-0.7539,0.0444,0.5032,-1.1844,-0.0508,-2.6476,0.3121,0.7649,-1.5042,848.8848,23.7000,-30.6000,-39.4200,22854.0000,145.468,-2.804,56.279,49.17435623,-121.67775008,0.00000000,
1.7800,-0.8903,-0.0460,0.5926,-1.1844,-0.0508,-2.6476,0.3121,0.7649,-1.5042,848.8848,23.7000,-30.6000,-39.4200,22854.0000,148.690,2.462,56.349,49.17435623,-121.67775008,0.00000000,
1.7890,-0.8903,-0.0460,0.5926,-1.1844,-0.0508,-2.6476,0.3121,0.7649,-1.5042,848.8848,25.5600,-29.5800,-39.0600,22854.0000,149.694,2.462,56.349,49.17435623,-121.67775008,0.00000000,
1.7930,-0.8903,-0.0460,0.5926,-1.1844,-0.0508,-2.6476,-1.3614,2.2754,-1.7417,848.8848,25.5600,-29.5800,-39.0600,22854.0000,149.694,2.462,56.349,49.17435623,-121.67775008,0.00000000,
1.8130,-0.8903,-0.0460,0.5926,-1.6872,0.1799,-0.9929,-1.3614,2.2754,-1.7417,848.8848,25.5600,-29.5800,-39.0600,22854.0000,149.694,2.462,56.349,49.17435623,-121.67775008,0.00000000,
1.8360,-1.0241,-0.0367,0.4534,-1.6872,0.1799,-0.9929,-1.3614,2.2754,-1.7417,848.8848,25.5600,-29.5800,-39.0600,22854.0000,140.565,1.877,66.122,49.17435623,-121.67775008,0.00000000,
1.8380,-1.0241,-0.0367,0.4534,-1.6872,0.1799,-0.9929,-1.3614,2.2754,-1.7417,848.8848,27.3600,-27.6600,-38.5200,22854.0000,140.193,1.877,66.122,49.17435623,-121.67775008,0.00000000,
1.8410,-1.0241,-0.0367,0.4534,-1.6872,0.1799,-0.9929,-1.1654,1.7630,-1.1952,848.8848,27.3600,-27.6600,-38.5200,22854.0000,140.193,1.877,66.122,49.17435623,-121.67775008,0.00000000,
1.8550,-1.0241,-0.0367,0.4534,-1.6872,0.1799,-0.9929,-1.1654,1.7630,-1.1952,849.0735,27.3600,-27.6600,-38.5200,22854.0000,140.193,1.877,66.122,49.17435623,-121.67775008,0.00000000,
1.8570,-1.0241,-0.0367,0.4534,-1.6872,0.1799,-0.9929,-1.1654,1.7630,-1.1952,849.0735,27.3600,-27.6600,-38.5200,16333.0000,140.193,1.877,66.122,49.17435623,-121.67775008,0.00000000,
1.8730,-1.0241,-0.0367,0.4534,-2.5652,0.9060,-1.7817,-1.1654,1.7630,-1.1952,849.0735,27.3600,-27.6600,-38.5200,16333.0000,140.193,1.877,66.122,49.17435623,-121.67775008,0.00000000,
1.8940,-0.8536,-0.0123,0.6645,-2.5652,0.9060,-1.7817,-1.1654,1.7630,-1.1952,849.0735,27.3600,-27.6600,-38.5200,16333.0000,154.246,0.650,52.103,49.17435623,-121.67775008,0.00000000,
1.8960,-0.8536,-0.0123,0.6645,-2.5652,0.9060,-1.7817,-1.1654,1.7630,-1.1952,849.0735,29.2800,-25.4400,-37.8000,16333.0000,155.480,0.650,52.103,49.17435623,-121.67775008,0.00000000,
1.8970,-0.8536,-0.0123,0.6645,-2.5652,0.9060,-1.7817,-1.3231,0.3388,-0.3654,849.0735,29.2800,-25.4400,-37.8000,16333.0000,155.480,0.650,52.103,49.17435623,-121.67775008,0.00000000,
1.9340,-0.8536,-0.0123,0.6645,-0.9761,1.8172,0.3623,-1.3231,0.3388,-0.3654,849.0735,29.2800,-25.4400,-37.8000,16333.0000,155.480,0.650,52.103,49.17435623,-121.67775008,0.00000000,
1.9550,-1.0036,-0.1804,0.6874,-0.9761,1.8172,0.3623,-1.3231,0.3388,-0.3654,849.0735,29.2800,-25.4400,-37.8000,16333.0000,155.308,8.434,55.591,49.17435623,-121.67775008,0.00000000,
1.9560,-1.0036,-0.1804,0.6874,-0.9761,1.8172,0.3623,-1.3231,0.3388,-0.3654,849.0735,31.3200,-23.0400,-37.0200,16333.0000,156.578,8.434,55.591,49.17435623,-121.67775008,0.00000000,
1.9580,-1.0036,-0.1804,0.6874,-0.9761,1.8172,0.3623,-1.5755,0.3292,-0.7361,849.0735,31.3200,-23.0400,-37.0200,16333.0000,156.578,8.434,55.591,49.17435623,-121.67775008,0.00000000,
1.9940,-1.0036,-0.1804,0.6874,-2.3375,0.5633,0.8614,-1.5755,0.3292,-0.7361,849.0735,31.3200,-23.0400,-37.0200,16333.0000,156.578,8.434,55.591,49.17435623,-121.67775008,0.00000000,
2.0160,-0.5976,-0.1735,0.5413,-2.3375,0.5633,0.8614,-1.5755,0.3292,-0.7361,849.0735,31.3200,-23.0400,-37.0200,16333.0000,168.889,12.145,47.828,49.17435623,-121.67775008,0.00000000,
2.0200,-0.5976,-0.1735,0.5413,-2.3375,0.5633,0.8614,-1.5755,0.3292,-0.7361,849.0735,33.3600,-20.5200,-36.2400,16333.0000,171.645,12.145,47.828,49.17435623,-121.67775008,0.00000000,
2.0220,-0.5976,-0.1735,0.5413,-2.3375,0.5633,0.8614,-0.6029,-0.0586,0.0735,849.0735,33.3600,-20.5200,-36.2400,16333.0000,171.645,12.145,47.828,49.17435623,-121.67775008,0.00000000,
2.0390,-0.5976,-0.1735,0.5413,-2.3375,0.5633,0.8614,-0.6029,-0.0586,0.0735,848.8767,33.3600,-20.5200,-36.2400,16333.0000,171.645,12.145,47.828,49.17435623,-121.67775008,0.00000000,
2.0410,-0.5976,-0.1735,0.5413,-2.3375,0.5633,0.8614,-0.6029,-0.0586,0.0735,848.8767,33.3600,-20.5200,-36.2400,13447.0000,171.645,12.145,47.828,49.17435623,-121.67775008,0.00000000,
2.0530,-0.5976,-0.1735,0.5413,1.6020,1.1377,-0.3951,-0.6029,-0.0586,0.0735,848.8767,33.3600,-20.5200,-36.2400,13447.0000,171.645,12.145,47.828,49.17435623,-121.67775008,0.00000000,
2.0780,-0.8424,-0.3284,0.4807,1.6020,1.1377,-0.3951,-0.6029,-0.0586,0.0735,848.8767,33.3600,-20.5200,-36.2400,13447.0000,156.579,18.706,60.287,49.17435623,-121.67775008,0.00000000,
2.0800,-0.8424,-0.3284,0.4807,1.6020,1.1377,-0.3951,-0.6029,-0.0586,0.0735,848.8767,35.2800,-18.0000,-35.2200,13447.0000,158.028,18.706,60.287,49.17435623,-121.67775008,0.00000000,
2.0820,-0.8424,-0.3284,0.4807,1.6020,1.1377,-0.3951,-1.0088,-0.4655,-0.0128,848.8767,35.2800,-18.0000,-35.2200,13447.0000,158.028,18.706,60.287,49.17435623,-121.67775008,0.00000000,
2.1150,-0.8424,-0.3284,0.4807,-0.8534,0.1123,-0.7924,-1.0088,-0.4655,-0.0128,848.8767,35.2800,-18.0000,-35.2200,13447.0000,158.028,18.706,60.287,49.17435623,-121.67775008,0.00000000,
2.1370,-0.7363,-0.5151,0.3728,-0.8534,0.1123,-0.7924,-1.0088,-0.4655,-0.0128,848.8767,35.2800,-18.0000,-35.2200,13447.0000,159.003,31.967,63.151,49.17435623,-121.67775008,0.00000000,
2.1410,-0.7363,-0.5151,0.3728,-0.8534,0.1123,-0.7924,-1.0088,-0.4655,-0.0128,848.8767,37.0200,-15.4800,-34.1400,13447.0000,160.492,31.967,63.151,49.17435623,-121.67775008,0.00000000,
2.1440,-0.7363,-0.5151,0.3728,-0.8534,0.1123,-0.7924,-1.2208,-0.2663,-0.0959,848.8767,37.0200,-15.4800,-34.1400,13447.0000,160.492,31.967,63.151,49.17435623,-121.67775008,0.00000000,
2.1750,-0.7363,-0.5151,0.3728,-0.1769,-1.3544,-2.0899,-1.2208,-0.2663,-0.0959,848.8767,37.0200,-15.4800,-34.1400,13447.0000,160.492,31.967,63.151,49.17435623,-121.67775008,0.00000000,
2.1990,-0.5902,-0.2659,0.7060,-0.1769,-1.3544,-2.0899,-1.2208,-0.2663,-0.0959,848.8767,37.0200,-15.4800,-34.1400,13447.0000,-167.246,16.115,39.898,49.17435623,-121.67775008,0.00000000,
2.2030,-0.5902,-0.2659,0.7060,-0.1769,-1.3544,-2.0899,-1.2208,-0.2663,-0.0959,848.8767,38.6400,-12.9000,-33.0600,13447.0000,-162.218,16.115,39.898,49.17435623,-121.67775008,0.00000000,
2.2100,-0.5902,-0.2659,0.7060,-0.1769,-1.3544,-2.0899,-1.0621,-0.4155,0.2578,848.8767,38.6400,-12.9000,-33.0600,13447.0000,-162.218,16.115,39.898,49.17435623,-121.67775008,0.00000000,
2.2120,-0.5902,-0.2659,0.7060,-0.1769,-1.3544,-2.0899,-1.0621,-0.4155,0.2578,848.8352,38.6400,-12.9000,-33.0600,13447.0000,-162.218,16.115,39.898,49.17435623,-121.67775008,0.00000000,
2.2130,-0.5902,-0.2659,0.7060,-0.1769,-1.3544,-2.0899,-1.0621,-0.4155,0.2578,848.8352,38.6400,-12.9000,-33.0600,12897.0000,-162.218,16.115,39.898,49.17435623,-121.67775008,0.00000000,
2.2320,-0.5902,-0.2659,0.7060,1.1117,1.3515,1.1779,-1.0621,-0.4155,0.2578,848.8352,38.6400,-12.9000,-33.0600,12897.0000,-162.218,16.115,39.898,49.17435623,-121.67775008,0.00000000,
2.2560,-0.9767,-0.4809,0.5355,1.1117,1.3515,1.1779,-1.0621,-0.4155,0.2578,848.8352,38.6400,-12.9000,-33.0600,12897.0000,161.743,23.350,61.268,49.17435623,-121.67775008,0.00000000,
2.2610,-0.9767,-0.4809,0.5355,1.1117,1.3515,1.1779,-1.0621,-0.4155,0.2578,848.8352,40.0800,-10.2000,-31.9800,12897.0000,163.373,23.350,61.268,49.17435623,-121.67775008,0.00000000,
2.2660,-0.9767,-0.4809,0.5355,1.1117,1.3515,1.1779,-1.0024,-0.4080,-0.2205,848.8352,40.0800,-10.2000,-31.9800,12897.0000,163.373,23.350,61.268,49.17435623,-121.67775008,0.00000000,
2.2910,-0.9767,-0.4809,0.5355,-2.8093,-0.4706,-0.4483,-1.0024,-0.4080,-0.2205,848.8352,40.0800,-10.2000,-31.9800,12897.0000,163.373,23.350,61.268,49.17435623,-121.67775008,0.00000000,
2.3150,-0.7603,-0.6250,0.6273,-2.8093,-0.4706,-0.4483,-1.0024,-0.4080,-0.2205,848.8352,40.0800,-10.2000,-31.9800,12897.0000,-178.664,32.378,50.474,49.17435623,-121.67775008,0.00000000,
2.3210,-0.7603,-0.6250,0.6273,-2.8093,-0.4706,-0.4483,-1.0024,-0.4080,-0.2205,848.8352,41.3400,-7.4400,-30.9000,12897.0000,-175.821,32.378,50.474,49.17435623,-121.67775008,0.00000000,
2.3230,-0.7603,-0.6250,0.6273,-2.8093,-0.4706,-0.4483,-1.7619,-0.9918,0.1886,848.8352,41.3400,-7.4400,-30.9000,12897.0000,-175.821,32.378,50.474,49.17435623,-121.67775008,0.00000000,
2.3520,-0.7603,-0.6250,0.6273,-0.9033,-1.4966,0.5015,-1.7619,-0.9918,0.1886,848.8352,41.3400,-7.4400,-30.9000,12897.0000,-175.821,32.378,50.474,49.17435623,-121.67775008,0.00000000,
2.3810,-0.6567,-0.6558,0.5477,-0.9033,-1.4966,0.5015,-1.7619,-0.9918,0.1886,848.8352,41.3400,-7.4400,-30.9000,12897.0000,-175.784,37.485,50.172,49.17435623,-121.67775008,0.00000000,
2.3830,-0.6567,-0.6558,0.5477,-0.9033,-1.4966,0.5015,-1.7619,-0.9918,0.1886,848.8352,42.4800,-4.6200,-29.8800,12897.0000,-173.092,37.485,50.172,49.17435623,-121.67775008,0.00000000,
2.3850,-0.6567,-0.6558,0.5477,-0.9033,-1.4966,0.5015,-1.5042,-0.8320,0.4868,848.8352,42.4800,-4.6200,-29.8800,12897.0000,-173.092,37.485,50.172,49.17435623,-121.67775008,0.00000000,
2.3920,-0.6567,-0.6558,0.5477,-0.9033,-1.4966,0.5015,-1.5042,-0.8320,0.4868,848.8208,42.4800,-4.6200,-29.8800,12897.0000,-173.092,37.485,50.172,49.17435623,-121.67775008,0.00000000,
2.3930,-0.6567,-0.6558,0.5477,-0.9033,-1.4966,0.5015,-1.5042,-0.8320,0.4868,848.8208,42.4800,-4.6200,-29.8800,12003.0000,-173.092,37.485,50.172,49.17435623,-121.67775008,0.00000000,
2.4120,-0.6567,-0.6558,0.5477,-0.1590,-1.3976,-0.2438,-1.5042,-0.8320,0.4868,848.8208,42.4800,-4.6200,-29.8800,12003.0000,-173.092,37.485,50.172,49.17435623,-121.67775008,0.00000000,
2.4360,-0.6836,-0.6924,0.3239,-0.1590,-1.3976,-0.2438,-1.5042,-0.8320,0.4868,848.8208,42.4800,-4.6200,-29.8800,12003.0000,166.932,42.471,64.647,49.17435623,-121.67775008,0.00000000,
2.4400,-0.6836,-0.6924,0.3239,-0.1590,-1.3976,-0.2438,-1.5042,-0.8320,0.4868,848.8208,43.5600,-1.6200,-28.8600,12003.0000,168.378,42.471,64.647,49.17435623,-121.67775008,0.00000000,
2.4430,-0.6836,-0.6924,0.3239,-0.1590,-1.3976,-0.2438,-1.2986,-1.1547,0.1832,848.8208,43.5600,-1.6200,-28.8600,12003.0000,168.378,42.471,64.647,49.17435623,-121.67775008,0.00000000,
2.4760,-0.6836,-0.6924,0.3239,-0.8763,-1.1579,-2.3570,-1.2986,-1.1547,0.1832,848.8208,43.5600,-1.6200,-28.8600,12003.0000,168.378,42.471,64.647,49.17435623,-121.67775008,0.00000000,
2.5060,-0.6274,-0.7726,0.4133,-0.8763,-1.1579,-2.3570,-1.2986,-1.1547,0.1832,848.8208,43.5600,-1.6200,-28.8600,12003.0000,179.797,45.800,56.624,49.17435623,-121.67775008,0.00000000,
2.5170,-0.6274,-0.7726,0.4133,-0.8763,-1.1579,-2.3570,-1.2986,-1.1547,0.1832,848.8208,44.5800,1.4400,-27.9600,12003.0000,-178.165,45.800,56.624,49.17435623,-121.67775008,0.00000000,
2.5230,-0.6274,-0.7726,0.4133,-0.8763,-1.1579,-2.3570,-2.3500,-1.5926,0.1641,848.8208,44.5800,1.4400,-27.9600,12003.0000,-178.165,45.800,56.624,49.17435623,-121.67775008,0.00000000,
2.5350,-0.6274,-0.7726,0.4133,-0.8024,-1.2205,-1.1709,-2.3500,-1.5926,0.1641,848.8208,44.5800,1.4400,-27.9600,12003.0000,-178.165,45.800,56.624,49.17435623,-121.67775008,0.00000000,
2.5630,-0.4876,-0.4589,0.8516,-0.8024,-1.2205,-1.1709,-2.3500,-1.5926,0.1641,848.8208,44.5800,1.4400,-27.9600,12003.0000,-126.516,25.061,29.796,49.17435623,-121.67775008,0.00000000,
2.5700,-0.4876,-0.4589,0.8516,-0.8024,-1.2205,-1.1709,-2.3500,-1.5926,0.1641,848.8208,45.3000,4.6800,-27.1800,12003.0000,-120.642,25.061,29.796,49.17435623,-121.67775008,0.00000000,
2.5750,-0.4876,-0.4589,0.8516,-0.8024,-1.2205,-1.1709,-1.4264,-0.9907,0.2546,848.8208,45.3000,4.6800,-27.1800,12003.0000,-120.642,25.061,29.796,49.17435623,-121.67775008,0.00000000,
2.5800,-0.4876,-0.4589,0.8516,-0.8024,-1.2205,-1.1709,-1.4264,-0.9907,0.2546,849.0193,45.3000,4.6800,-27.1800,12003.0000,-120.642,25.061,29.796,49.17435623,-121.67775008,0.00000000,
2.5840,-0.4876,-0.4589,0.8516,-0.8024,-1.2205,-1.1709,-1.4264,-0.9907,0.2546,849.0193,45.3000,4.6800,-27.1800,11108.0000,-120.642,25.061,29.796,49.17435623,-121.67775008,0.00000000,
2.5920,-0.4876,-0.4589,0.8516,0.4847,2.0562,3.2937,-1.4264,-0.9907,0.2546,849.0193,45.3000,4.6800,-27.1800,11108.0000,-120.642,25.061,29.796,49.17435623,-121.67775008,0.00000000,
2.6130,-0.6591,-0.6372,0.2398,0.4847,2.0562,3.2937,-1.4264,-0.9907,0.2546,849.0193,45.3000,4.6800,-27.1800,11108.0000,162.255,42.254,70.005,49.17435623,-121.67775008,0.00000000,
2.6140,-0.6591,-0.6372,0.2398,0.4847,2.0562,3.2937,-1.4264,-0.9907,0.2546,849.0193,45.7800,8.0400,-26.5200,11108.0000,162.321,42.254,70.005,49.17435623,-121.67775008,0.00000000,
2.6160,-0.6591,-0.6372,0.2398,0.4847,2.0562,3.2937,-0.5113,0.0618,-0.1939,849.0193,45.7800,8.0400,-26.5200,11108.0000,162.321,42.254,70.005,49.17435623,-121.67775008,0.00000000,
2.6600,-0.6591,-0.6372,0.2398,-1.2478,0.4555,-2.5603,-0.5113,0.0618,-0.1939,849.0193,45.7800,8.0400,-26.5200,11108.0000,162.321,42.254,70.005,49.17435623,-121.67775008,0.00000000,
2.6730,-0.7036,-0.6299,0.5311,-1.2478,0.4555,-2.5603,-0.5113,0.0618,-0.1939,849.0193,45.7800,8.0400,-26.5200,11108.0000,-165.036,35.547,52.955,49.17435623,-121.67775008,0.00000000,
2.6750,-0.7036,-0.6299,0.5311,-1.2478,0.4555,-2.5603,-0.5113,0.0618,-0.1939,849.0193,46.0200,11.2200,-25.8000,11108.0000,-161.458,35.547,52.955,49.17435623,-121.67775008,0.00000000,
2.6760,-0.7036,-0.6299,0.5311,-1.2478,0.4555,-2.5603,-0.5167,-0.4059,0.1822,849.0193,46.0200,11.2200,-25.8000,11108.0000,-161.458,35.547,52.955,49.17435623,-121.67775008,0.00000000,
2.7120,-0.7036,-0.6299,0.5311,-1.5786,0.4839,0.3474,-0.5167,-0.4059,0.1822,849.0193,46.0200,11.2200,-25.8000,11108.0000,-161.458,35.547,52.955,49.17435623,-121.67775008,0.00000000,
2.7360,-0.4940,-0.5419,0.5853,-1.5786,0.4839,0.3474,-0.5167,-0.4059,0.1822,849.0193,46.0200,11.2200,-25.8000,11108.0000,-136.278,35.282,40.164,49.17435623,-121.67775008,0.00000000,
2.7390,-0.4940,-0.5419,0.5853,-1.5786,0.4839,0.3474,-0.5167,-0.4059,0.1822,849.0193,46.1400,14.1000,-25.1400,11108.0000,-131.375,35.282,40.164,49.17435623,-121.67775008,0.00000000,
2.7420,-0.4940,-0.5419,0.5853,-1.5786,0.4839,0.3474,0.1193,1.3838,0.1715,849.0193,46.1400,14.1000,-25.1400,11108.0000,-131.375,35.282,40.164,49.17435623,-121.67775008,0.00000000,
2.7520,-0.4940,-0.5419,0.5853,-1.5786,0.4839,0.3474,0.1193,1.3838,0.1715,849.0791,46.1400,14.1000,-25.1400,11108.0000,-131.375,35.282,40.164,49.17435623,-121.67775008,0.00000000,
2.7550,-0.4940,-0.5419,0.5853,-1.5786,0.4839,0.3474,0.1193,1.3838,0.1715,849.0791,46.1400,14.1000,-25.1400,9738.0000,-131.375,35.282,40.164,49.17435623,-121.67775008,0.00000000,
2.7730,-0.4940,-0.5419,0.5853,0.9945,1.0186,1.0398,0.1193,1.3838,0.1715,849.0791,46.1400,14.1000,-25.1400,9738.0000,-131.375,35.282,40.164,49.17435623,-121.67775008,0.00000000,
2.7950,-0.3963,-0.7203,0.1890,0.9945,1.0186,1.0398,0.1193,1.3838,0.1715,849.0791,46.1400,14.1000,-25.1400,9738.0000,175.688,58.636,64.497,49.17435623,-121.67775008,0.00000000,
2.7990,-0.3963,-0.7203,0.1890,0.9945,1.0186,1.0398,0.1193,1.3838,0.1715,849.0791,46.0800,16.2600,-24.7800,9738.0000,176.005,58.636,64.497,49.17435623,-121.67775008,0.00000000,
2.8030,-0.3963,-0.7203,0.1890,0.9945,1.0186,1.0398,0.4091,1.5404,0.0415,849.0791,46.0800,16.2600,-24.7800,9738.0000,176.005,58.636,64.497,49.17435623,-121.67775008,0.00000000,
2.8300,-0.3963,-0.7203,0.1890,2.3249,-0.7128,-2.3137,0.4091,1.5404,0.0415,849.0791,46.0800,16.2600,-24.7800,9738.0000,176.005,58.636,64.497,49.17435623,-121.67775008,0.00000000,
2.8530,-0.5898,-0.5341,0.7084,2.3249,-0.7128,-2.3137,0.4091,1.5404,0.0415,849.0791,46.0800,16.2600,-24.7800,9738.0000,-117.679,30.090,39.777,49.17435623,-121.67775008,0.00000000,
2.8550,-0.5898,-0.5341,0.7084,2.3249,-0.7128,-2.3137,0.4091,1.5404,0.0415,849.0791,45.7200,18.2400,-24.7200,9738.0000,-113.517,30.090,39.777,49.17435623,-121.67775008,0.00000000,
2.8580,-0.5898,-0.5341,0.7084,2.3249,-0.7128,-2.3137,-0.2812,0.8458,-0.1161,849.0791,45.7200,18.2400,-24.7200,9738.0000,-113.517,30.090,39.777,49.17435623,-121.67775008,0.00000000,
2.8920,-0.5898,-0.5341,0.7084,0.3198,1.1573,2.6865,-0.2812,0.8458,-0.1161,849.0791,45.7200,18.2400,-24.7200,9738.0000,-113.517,30.090,39.777,49.17435623,-121.67775008,0.00000000,
2.9250,-0.4613,-0.7872,0.0615,0.3198,1.1573,2.6865,-0.2812,0.8458,-0.1161,849.0791,45.7200,18.2400,-24.7200,9738.0000,150.436,59.412,82.405,49.17435623,-121.67775008,0.00000000,
2.9320,-0.4613,-0.7872,0.0615,0.3198,1.1573,2.6865,-0.2812,0.8458,-0.1161,849.0791,45.3000,20.1600,-24.6000,9738.0000,149.471,59.412,82.405,49.17435623,-121.67775008,0.00000000,
2.9390,-0.4613,-0.7872,0.0615,0.3198,1.1573,2.6865,0.5795,0.2407,-0.9886,849.0791,45.3000,20.1600,-24.6000,9738.0000,149.471,59.412,82.405,49.17435623,-121.67775008,0.00000000,
2.9430,-0.4613,-0.7872,0.0615,0.3198,1.1573,2.6865,0.5795,0.2407,-0.9886,848.9387,45.3000,20.1600,-24.6000,9738.0000,149.471,59.412,82.405,49.17435623,-121.67775008,0.00000000,
2.9450,-0.4613,-0.7872,0.0615,0.3198,1.1573,2.6865,0.5795,0.2407,-0.9886,848.9387,45.3000,20.1600,-24.6000,9738.0000,149.471,59.412,82.405,49.17435623,-121.67775008,0.00000000,
2.9600,-0.4613,-0.7872,0.0615,0.7651,-1.0435,-4.2685,0.5795,0.2407,-0.9886,848.9387,45.3000,20.1600,-24.6000,9738.0000,149.471,59.412,82.405,49.17435623,-121.67775008,0.00000000,
2.9720,-0.7622,-0.5781,0.1690,0.7651,-1.0435,-4.2685,0.5795,0.2407,-0.9886,848.9387,45.3000,20.1600,-24.6000,9738.0000,133.069,36.517,77.499,49.17435623,-121.67775008,0.00000000,
2.9730,-0.7622,-0.5781,0.1690,0.7651,-1.0435,-4.2685,0.5795,0.2407,-0.9886,848.9387,44.8800,22.0800,-24.4800,9738.0000,128.987,36.517,77.499,49.17435623,-121.67775008,0.00000000,
2.9740,-0.7622,-0.5781,0.1690,0.7651,-1.0435,-4.2685,1.1526,-1.2879,-1.7066,848.9387,44.8800,22.0800,-24.4800,9738.0000,128.987,36.517,77.499,49.17435623,-121.67775008,0.00000000,
3.0200,-0.7622,-0.5781,0.1690,-3.0559,1.2019,-3.7779,1.1526,-1.2879,-1.7066,848.9387,44.8800,22.0800,-24.4800,9738.0000,128.987,36.517,77.499,49.17435623,-121.67775008,0.00000000,
3.0410,-0.4715,-0.8170,0.4480,-3.0559,1.2019,-3.7779,1.1526,-1.2879,-1.7066,848.9387,44.8800,22.0800,-24.4800,9738.0000,-152.127,51.478,46.465,49.17435623,-121.67775008,0.00000000,
3.0450,-0.4715,-0.8170,0.4480,-3.0559,1.2019,-3.7779,1.1526,-1.2879,-1.7066,848.9387,44.2800,23.7600,-24.4200,9738.0000,-151.406,51.478,46.465,49.17435623,-121.67775008,0.00000000,
3.0510,-0.4715,-0.8170,0.4480,-3.0559,1.2019,-3.7779,0.7436,-2.1359,-0.7553,848.9387,44.2800,23.7600,-24.4200,9738.0000,-151.406,51.478,46.465,49.17435623,-121.67775008,0.00000000,
3.0710,-0.4715,-0.8170,0.4480,-0.9983,-1.3352,-1.8175,0.7436,-2.1359,-0.7553,848.9387,44.2800,23.7600,-24.4200,9738.0000,-151.406,51.478,46.465,49.17435623,-121.67775008,0.00000000,
3.0910,0.1588,-1.0711,0.4079,-0.9983,-1.3352,-1.8175,0.7436,-2.1359,-0.7553,848.9387,44.2800,23.7600,-24.4200,9738.0000,-86.811,67.771,-21.270,49.17435623,-121.67775008,0.00000000,
3.0930,0.1588,-1.0711,0.4079,-0.9983,-1.3352,-1.8175,0.7436,-2.1359,-0.7553,848.9387,43.5000,25.3200,-24.4200,9738.0000,-86.385,67.771,-21.270,49.17435623,-121.67775008,0.00000000,
3.0950,0.1588,-1.0711,0.4079,-0.9983,-1.3352,-1.8175,0.3483,-0.6860,0.2141,848.9387,43.5000,25.3200,-24.4200,9738.0000,-86.385,67.771,-21.270,49.17435623,-121.67775008,0.00000000,
3.1100,0.1588,-1.0711,0.4079,-0.9983,-1.3352,-1.8175,0.3483,-0.6860,0.2141,849.0818,43.5000,25.3200,-24.4200,9738.0000,-86.385,67.771,-21.270,49.17435623,-121.67775008,0.00000000,
3.1130,0.1588,-1.0711,0.4079,-0.9983,-1.3352,-1.8175,0.3483,-0.6860,0.2141,849.0818,43.5000,25.3200,-24.4200,4975.0000,-86.385,67.771,-21.270,49.17435623,-121.67775008,0.00000000,
3.1310,0.1588,-1.0711,0.4079,5.1406,-3.7900,-2.1943,0.3483,-0.6860,0.2141,849.0818,43.5000,25.3200,-24.4200,4975.0000,-86.385,67.771,-21.270,49.17435623,-121.67775008,0.00000000,
3.1560,-0.4055,-0.7931,0.7612,5.1406,-3.7900,-2.1943,0.3483,-0.6860,0.2141,849.0818,43.5000,25.3200,-24.4200,4975.0000,-110.000,42.599,28.048,49.17435623,-121.67775008,0.00000000,
3.1600,-0.4055,-0.7931,0.7612,5.1406,-3.7900,-2.1943,0.3483,-0.6860,0.2141,849.0818,42.4800,26.8800,-24.6600,4975.0000,-108.101,42.599,28.048,49.17435623,-121.67775008,0.00000000,
3.1630,-0.4055,-0.7931,0.7612,5.1406,-3.7900,-2.1943,0.0831,0.3100,-0.6306,849.0818,42.4800,26.8800,-24.6600,4975.0000,-108.101,42.599,28.048,49.17435623,-121.67775008,0.00000000,
3.1960,-0.4055,-0.7931,0.7612,-0.5376,-0.6972,1.6029,0.0831,0.3100,-0.6306,849.0818,42.4800,26.8800,-24.6600,4975.0000,-108.101,42.599,28.048,49.17435623,-121.67775008,0.00000000,
3.2230,-0.3147,-0.7457,0.6757,-0.5376,-0.6972,1.6029,0.0831,0.3100,-0.6306,849.0818,42.4800,26.8800,-24.6600,4975.0000,-108.664,45.012,24.971,49.17435623,-121.67775008,0.00000000,
3.2250,-0.3147,-0.7457,0.6757,-0.5376,-0.6972,1.6029,0.0831,0.3100,-0.6306,849.0818,41.1000,28.6800,-25.3200,4975.0000,-107.211,45.012,24.971,49.17435623,-121.67775008,0.00000000,
3.2270,-0.3147,-0.7457,0.6757,-0.5376,-0.6972,1.6029,-0.3899,-0.2056,-0.5795,849.0818,41.1000,28.6800,-25.3200,4975.0000,-107.211,45.012,24.971,49.17435623,-121.67775008,0.00000000,
3.2500,-0.3147,-0.7457,0.6757,0.3069,0.0327,1.0727,-0.3899,-0.2056,-0.5795,849.0818,41.1000,28.6800,-25.3200,4975.0000,-107.211,45.012,24.971,49.17435623,-121.67775008,0.00000000,
3.2810,-0.3371,-0.8082,0.4671,0.3069,0.0327,1.0727,-0.3899,-0.2056,-0.5795,849.0818,41.1000,28.6800,-25.3200,4975.0000,-136.737,54.522,35.824,49.17435623,-121.67775008,0.00000000,
3.2890,-0.3371,-0.8082,0.4671,0.3069,0.0327,1.0727,-0.3899,-0.2056,-0.5795,849.0818,39.4200,30.4200,-26.1600,4975.0000,-137.866,54.522,35.824,49.17435623,-121.67775008,0.00000000,
3.2940,-0.3371,-0.8082,0.4671,0.3069,0.0327,1.0727,0.0575,2.1199,-0.5326,849.0818,39.4200,30.4200,-26.1600,4975.0000,-137.866,54.522,35.824,49.17435623,-121.67775008,0.00000000,
3.2990,-0.3371,-0.8082,0.4671,0.3069,0.0327,1.0727,0.0575,2.1199,-0.5326,849.1099,39.4200,30.4200,-26.1600,4975.0000,-137.866,54.522,35.824,49.17435623,-121.67775008,0.00000000,
3.3030,-0.3371,-0.8082,0.4671,0.3069,0.0327,1.0727,0.0575,2.1199,-0.5326,849.1099,39.4200,30.4200,-26.1600,4975.0000,-137.866,54.522,35.824,49.17435623,-121.67775008,0.00000000,
3.3140,-0.3371,-0.8082,0.4671,0.0609,-0.5974,-1.0102,0.0575,2.1199,-0.5326,849.1099,39.4200,30.4200,-26.1600,4975.0000,-137.866,54.522,35.824,49.17435623,-121.67775008,0.00000000,
3.3310,-0.3572,-0.7095,0.5350,0.0609,-0.5974,-1.0102,0.0575,2.1199,-0.5326,849.1099,39.4200,30.4200,-26.1600,4975.0000,-123.102,47.805,33.729,49.17435623,-121.67775008,0.00000000,
3.3330,-0.3572,-0.7095,0.5350,0.0609,-0.5974,-1.0102,0.0575,2.1199,-0.5326,849.1099,37.8000,32.1000,-27.0000,4975.0000,-122.869,47.805,33.729,49.17435623,-121.67775008,0.00000000,
3.3340,-0.3572,-0.7095,0.5350,0.0609,-0.5974,-1.0102,0.4123,0.7926,-0.1129,849.1099,37.8000,32.1000,-27.0000,4975.0000,-122.869,47.805,33.729,49.17435623,-121.67775008,0.00000000,
3.3750,-0.3572,-0.7095,0.5350,0.2505,0.1557,-0.3754,0.4123,0.7926,-0.1129,849.1099,37.8000,32.1000,-27.0000,4975.0000,-122.869,47.805,33.729,49.17435623,-121.67775008,0.00000000,
3.4010,-0.5209,-0.8058,0.6801,0.2505,0.1557,-0.3754,0.4123,0.7926,-0.1129,849.1099,37.8000,32.1000,-27.0000,4975.0000,-117.423,43.248,37.448,49.17435623,-121.67775008,0.00000000,
3.4070,-0.5209,-0.8058,0.6801,0.2505,0.1557,-0.3754,0.4123,0.7926,-0.1129,849.1099,36.1200,33.8400,-27.7800,4975.0000,-115.058,43.248,37.448,49.17435623,-121.67775008,0.00000000,
3.4150,-0.5209,-0.8058,0.6801,0.2505,0.1557,-0.3754,0.5539,-0.0618,0.9140,849.1099,36.1200,33.8400,-27.7800,4975.0000,-115.058,43.248,37.448,49.17435623,-121.67775008,0.00000000,
3.4300,-0.5209,-0.8058,0.6801,-1.0380,-0.9342,1.0829,0.5539,-0.0618,0.9140,849.1099,36.1200,33.8400,-27.7800,4975.0000,-115.058,43.248,37.448,49.17435623,-121.67775008,0.00000000,
3.4510,-0.2648,-0.8644,0.4050,-1.0380,-0.9342,1.0829,0.5539,-0.0618,0.9140,849.1099,36.1200,33.8400,-27.7800,4975.0000,-144.422,60.760,33.181,49.17435623,-121.67775008,0.00000000,
3.4520,-0.2648,-0.8644,0.4050,-1.0380,-0.9342,1.0829,0.5539,-0.0618,0.9140,849.1099,34.5000,35.4600,-28.5600,4975.0000,-146.502,60.760,33.181,49.17435623,-121.67775008,0.00000000,
3.4540,-0.2648,-0.8644,0.4050,-1.0380,-0.9342,1.0829,0.1033,-0.1097,0.5167,849.1099,34.5000,35.4600,-28.5600,4975.0000,-146.502,60.760,33.181,49.17435623,-121.67775008,0.00000000,
3.4760,-0.2648,-0.8644,0.4050,-1.0380,-0.9342,1.0829,0.1033,-0.1097,0.5167,849.1335,34.5000,35.4600,-28.5600,4975.0000,-146.502,60.760,33.181,49.17435623,-121.67775008,0.00000000,
3.4790,-0.2648,-0.8644,0.4050,-1.0380,-0.9342,1.0829,0.1033,-0.1097,0.5167,849.1335,34.5000,35.4600,-28.5600,120.0000,-146.502,60.760,33.181,49.17435623,-121.67775008,0.00000000,
3.4920,-0.2648,-0.8644,0.4050,1.7936,-1.8679,-1.8018,0.1033,-0.1097,0.5167,849.1335,34.5000,35.4600,-28.5600,120.0000,-146.502,60.760,33.181,49.17435623,-121.67775008,0.00000000,
3.5160,-0.3528,-0.6641,0.5477,1.7936,-1.8679,-1.8018,0.1033,-0.1097,0.5167,849.1335,34.5000,35.4600,-28.5600,120.0000,-112.632,45.550,32.787,49.17435623,-121.67775008,0.00000000,
3.5190,-0.3528,-0.6641,0.5477,1.7936,-1.8679,-1.8018,0.1033,-0.1097,0.5167,849.1335,33.0600,36.9000,-29.3400,120.0000,-110.905,45.550,32.787,49.17435623,-121.67775008,0.00000000,
3.5230,-0.3528,-0.6641,0.5477,1.7936,-1.8679,-1.8018,0.3846,-0.0948,0.2706,849.1335,33.0600,36.9000,-29.3400,120.0000,-110.905,45.550,32.787,49.17435623,-121.67775008,0.00000000,
3.5510,-0.3528,-0.6641,0.5477,0.9825,-0.0113,-0.4853,0.3846,-0.0948,0.2706,849.1335,33.0600,36.9000,-29.3400,120.0000,-110.905,45.550,32.787,49.17435623,-121.67775008,0.00000000,
3.5740,-0.4485,-0.6372,0.5081,0.9825,-0.0113,-0.4853,0.3846,-0.0948,0.2706,849.1335,33.0600,36.9000,-29.3400,120.0000,-120.564,43.234,41.438,49.17435623,-121.67775008,0.00000000,
3.5800,-0.4485,-0.6372,0.5081,0.9825,-0.0113,-0.4853,0.3846,-0.0948,0.2706,849.1335,31.7400,38.1000,-30.1800,120.0000,-119.113,43.234,41.438,49.17435623,-121.67775008,0.00000000,
3.5830,-0.4485,-0.6372,0.5081,0.9825,-0.0113,-0.4853,0.1630,-0.2152,-0.0799,849.1335,31.7400,38.1000,-30.1800,120.0000,-119.113,43.234,41.438,49.17435623,-121.67775008,0.00000000,
3.6110,-0.4485,-0.6372,0.5081,-0.1029,0.2887,-0.9415,0.1630,-0.2152,-0.0799,849.1335,31.7400,38.1000,-30.1800,120.0000,-119.113,43.234,41.438,49.17435623,-121.67775008,0.00000000,
3.6340,-0.4270,-0.6822,0.5741,-0.1029,0.2887,-0.9415,0.1630,-0.2152,-0.0799,849.1335,31.7400,38.1000,-30.1800,120.0000,-106.496,43.634,36.646,49.17435623,-121.67775008,0.00000000,
3.6370,-0.4270,-0.6822,0.5741,-0.1029,0.2887,-0.9415,0.1630,-0.2152,-0.0799,849.1335,30.5400,39.2400,-30.9600,120.0000,-102.355,43.634,36.646,49.17435623,-121.67775008,0.00000000,
3.6400,-0.4270,-0.6822,0.5741,-0.1029,0.2887,-0.9415,-0.0660,-0.5475,-0.1150,849.1335,30.5400,39.2400,-30.9600,120.0000,-102.355,43.634,36.646,49.17435623,-121.67775008,0.00000000,
3.6530,-0.4270,-0.6822,0.5741,-0.1029,0.2887,-0.9415,-0.0660,-0.5475,-0.1150,849.0613,30.5400,39.2400,-30.9600,120.0000,-102.355,43.634,36.646,49.17435623,-121.67775008,0.00000000,
3.6560,-0.4270,-0.6822,0.5741,-0.1029,0.2887,-0.9415,-0.0660,-0.5475,-0.1150,849.0613,30.5400,39.2400,-30.9600,70.0000,-102.355,43.634,36.646,49.17435623,-121.67775008,0.00000000,
3.6720,-0.4270,-0.6822,0.5741,-0.1487,-0.0840,-0.3994,-0.0660,-0.5475,-0.1150,849.0613,30.5400,39.2400,-30.9600,70.0000,-102.355,43.634,36.646,49.17435623,-121.67775008,0.00000000,
3.6970,-0.3616,-0.7056,0.6234,-0.1487,-0.0840,-0.3994,-0.0660,-0.5475,-0.1150,849.0613,30.5400,39.2400,-30.9600,70.0000,-97.420,44.395,30.113,49.17435623,-121.67775008,0.00000000,
3.7010,-0.3616,-0.7056,0.6234,-0.1487,-0.0840,-0.3994,-0.0660,-0.5475,-0.1150,849.0613,29.4600,40.2000,-31.8000,70.0000,-95.163,44.395,30.113,49.17435623,-121.67775008,0.00000000,
3.7040,-0.3616,-0.7056,0.6234,-0.1487,-0.0840,-0.3994,-0.0320,-0.5401,-0.0895,849.0613,29.4600,40.2000,-31.8000,70.0000,-95.163,44.395,30.113,49.17435623,-121.67775008,0.00000000,
3.7350,-0.3616,-0.7056,0.6234,0.2509,-0.2606,-0.0136,-0.0320,-0.5401,-0.0895,849.0613,29.4600,40.2000,-31.8000,70.0000,-95.163,44.395,30.113,49.17435623,-121.67775008,0.00000000,
3.7510,-0.3635,-0.7081,0.6503,0.2509,-0.2606,-0.0136,-0.0320,-0.5401,-0.0895,849.0613,29.4600,40.2000,-31.8000,70.0000,-89.363,43.544,29.207,49.17435623,-121.67775008,0.00000000,
3.7530,-0.3635,-0.7081,0.6503,0.2509,-0.2606,-0.0136,-0.0320,-0.5401,-0.0895,849.0613,28.3200,41.1600,-32.7000,70.0000,-85.750,43.544,29.207,49.17435623,-121.67775008,0.00000000,
3.7550,-0.3635,-0.7081,0.6503,0.2509,-0.2606,-0.0136,0.1342,-0.2770,-0.0714,849.0613,28.3200,41.1600,-32.7000,70.0000,-85.750,43.544,29.207,49.17435623,-121.67775008,0.00000000,
3.7890,-0.3635,-0.7081,0.6503,0.1343,-0.3306,0.1412,0.1342,-0.2770,-0.0714,849.0613,28.3200,41.1600,-32.7000,70.0000,-85.750,43.544,29.207,49.17435623,-121.67775008,0.00000000,
3.8130,-0.3303,-0.6802,0.6068,0.1343,-0.3306,0.1412,0.1342,-0.2770,-0.0714,849.0613,28.3200,41.1600,-32.7000,70.0000,-91.980,44.555,28.561,49.17435623,-121.67775008,0.00000000,
3.8150,-0.3303,-0.6802,0.6068,0.1343,-0.3306,0.1412,0.1342,-0.2770,-0.0714,849.0613,27.2400,42.0000,-33.6600,70.0000,-89.636,44.555,28.561,49.17435623,-121.67775008,0.00000000,
3.8170,-0.3303,-0.6802,0.6068,0.1343,-0.3306,0.1412,0.2333,-0.0522,0.0309,849.0613,27.2400,42.0000,-33.6600,70.0000,-89.636,44.555,28.561,49.17435623,-121.67775008,0.00000000,
3.8310,-0.3303,-0.6802,0.6068,0.1343,-0.3306,0.1412,0.2333,-0.0522,0.0309,849.1116,27.2400,42.0000,-33.6600,70.0000,-89.636,44.555,28.561,49.17435623,-121.67775008,0.00000000,
3.8330,-0.3303,-0.6802,0.6068,0.1343,-0.3306,0.1412,0.2333,-0.0522,0.0309,849.1116,27.2400,42.0000,-33.6600,54.0000,-89.636,44.555,28.561,49.17435623,-121.67775008,0.00000000,
3.8480,-0.3303,-0.6802,0.6068,0.4850,-0.1407,-0.3571,0.2333,-0.0522,0.0309,849.1116,27.2400,42.0000,-33.6600,54.0000,-89.636,44.555,28.561,49.17435623,-121.67775008,0.00000000,
3.8720,-0.3748,-0.6831,0.5228,0.4850,-0.1407,-0.3571,0.2333,-0.0522,0.0309,849.1116,27.2400,42.0000,-33.6600,54.0000,-136.698,46.724,35.637,49.17435623,-121.67775008,0.00000000,
3.8730,-0.3748,-0.6831,0.5228,0.4850,-0.1407,-0.3571,0.2333,-0.0522,0.0309,849.1116,26.0400,42.7200,-34.8000,54.0000,-159.341,46.724,35.637,49.17435623,-121.67775008,0.00000000,
3.8740,-0.3748,-0.6831,0.5228,0.4850,-0.1407,-0.3571,0.3057,0.0394,0.0969,849.1116,26.0400,42.7200,-34.8000,54.0000,-159.341,46.724,35.637,49.17435623,-121.67775008,0.00000000,
3.9120,-0.3748,-0.6831,0.5228,0.1049,-0.2108,-1.1903,0.3057,0.0394,0.0969,849.1116,26.0400,42.7200,-34.8000,54.0000,-159.341,46.724,35.637,49.17435623,-121.67775008,0.00000000,
3.9330,-0.3899,-0.6704,0.6337,0.1049,-0.2108,-1.1903,0.3057,0.0394,0.0969,849.1116,26.0400,42.7200,-34.8000,54.0000,-54.987,42.022,31.605,49.17435623,-121.67775008,0.00000000,
3.9360,-0.3899,-0.6704,0.6337,0.1049,-0.2108,-1.1903,0.3057,0.0394,0.0969,849.1116,24.9000,43.3200,-35.9400,54.0000,-38.744,42.022,31.605,49.17435623,-121.67775008,0.00000000,
3.9400,-0.3899,-0.6704,0.6337,0.1049,-0.2108,-1.1903,0.1513,-0.0245,0.0170,849.1116,24.9000,43.3200,-35.9400,54.0000,-38.744,42.022,31.605,49.17435623,-121.67775008,0.00000000,
3.9710,-0.3899,-0.6704,0.6337,-0.0759,-0.1157,-0.1525,0.1513,-0.0245,0.0170,849.1116,24.9000,43.3200,-35.9400,54.0000,-38.744,42.022,31.605,49.17435623,-121.67775008,0.00000000,
3.9980,-0.3513,-0.7330,0.5521,-0.0759,-0.1157,-0.1525,0.1513,-0.0245,0.0170,849.1116,24.9000,43.3200,-35.9400,54.0000,-155.409,48.243,32.471,49.17435623,-121.67775008,0.00000000,
4.0050,-0.3513,-0.7330,0.5521,-0.0759,-0.1157,-0.1525,0.1513,-0.0245,0.0170,849.1116,23.8200,43.8600,-37.1400,54.0000,-177.577,48.243,32.471,49.17435623,-121.67775008,0.00000000,
4.0150,-0.3513,-0.7330,0.5521,-0.0759,-0.1157,-0.1525,-0.2045,-0.0394,0.2322,849.1116,23.8200,43.8600,-37.1400,54.0000,-177.577,48.243,32.471,49.17435623,-121.67775008,0.00000000,
4.0200,-0.3513,-0.7330,0.5521,-0.0759,-0.1157,-0.1525,-0.2045,-0.0394,0.2322,848.9192,23.8200,43.8600,-37.1400,54.0000,-177.577,48.243,32.471,49.17435623,-121.67775008,0.00000000,
4.0250,-0.3513,-0.7330,0.5521,-0.0759,-0.1157,-0.1525,-0.2045,-0.0394,0.2322,848.9192,23.8200,43.8600,-37.1400,72.0000,-177.577,48.243,32.471,49.17435623,-121.67775008,0.00000000,
4.0340,-0.3513,-0.7330,0.5521,0.4254,-0.7965,-0.9472,-0.2045,-0.0394,0.2322,848.9192,23.8200,43.8600,-37.1400,72.0000,-177.577,48.243,32.471,49.17435623,-121.67775008,0.00000000,
4.0540,-0.3899,-0.7129,0.6131,0.4254,-0.7965,-0.9472,-0.2045,-0.0394,0.2322,848.9192,23.8200,43.8600,-37.1400,72.0000,-22.775,44.456,32.453,49.17435623,-121.67775008,0.00000000,
4.0570,-0.3899,-0.7129,0.6131,0.4254,-0.7965,-0.9472,-0.2045,-0.0394,0.2322,848.9192,22.8600,44.4000,-38.2800,72.0000,69.080,44.456,32.453,49.17435623,-121.67775008,0.00000000,
4.0600,-0.3899,-0.7129,0.6131,0.4254,-0.7965,-0.9472,0.0117,-0.0543,0.0405,848.9192,22.8600,44.4000,-38.2800,72.0000,69.080,44.456,32.453,49.17435623,-121.67775008,0.00000000,
4.0900,-0.3899,-0.7129,0.6131,0.0356,-0.5777,-0.3330,0.0117,-0.0543,0.0405,848.9192,22.8600,44.4000,-38.2800,72.0000,69.080,44.456,32.453,49.17435623,-121.67775008,0.00000000,
4.1210,-0.3894,-0.6538,0.6571,0.0356,-0.5777,-0.3330,0.0117,-0.0543,0.0405,848.9192,22.8600,44.4000,-38.2800,72.0000,-1.815,40.562,30.652,49.17435623,-121.67775008,0.00000000,
4.1300,-0.3894,-0.6538,0.6571,0.0356,-0.5777,-0.3330,0.0117,-0.0543,0.0405,848.9192,22.0800,44.7600,-39.2400,72.0000,12.051,40.562,30.652,49.17435623,-121.67775008,0.00000000,
4.1310,-0.3894,-0.6538,0.6571,0.0356,-0.5777,-0.3330,0.1012,-0.0298,-0.0064,848.9192,22.0800,44.7600,-39.2400,72.0000,12.051,40.562,30.652,49.17435623,-121.67775008,0.00000000,
4.1490,-0.3894,-0.6538,0.6571,0.0269,-0.0214,0.0667,0.1012,-0.0298,-0.0064,848.9192,22.0800,44.7600,-39.2400,72.0000,12.051,40.562,30.652,49.17435623,-121.67775008,0.00000000,
4.1730,-0.3327,-0.6739,0.6557,0.0269,-0.0214,0.0667,0.1012,-0.0298,-0.0064,848.9192,22.0800,44.7600,-39.2400,72.0000,-36.561,42.505,26.908,49.17435623,-121.67775008,0.00000000,
4.1770,-0.3327,-0.6739,0.6557,0.0269,-0.0214,0.0667,0.1012,-0.0298,-0.0064,848.9192,21.6600,44.7600,-39.9000,72.0000,-28.316,42.505,26.908,49.17435623,-121.67775008,0.00000000,
4.1820,-0.3327,-0.6739,0.6557,0.0269,-0.0214,0.0667,0.0330,0.0256,-0.2812,848.9192,21.6600,44.7600,-39.9000,72.0000,-28.316,42.505,26.908,49.17435623,-121.67775008,0.00000000,
4.1910,-0.3327,-0.6739,0.6557,0.0269,-0.0214,0.0667,0.0330,0.0256,-0.2812,849.1238,21.6600,44.7600,-39.9000,72.0000,-28.316,42.505,26.908,49.17435623,-121.67775008,0.00000000,
4.1930,-0.3327,-0.6739,0.6557,0.0269,-0.0214,0.0667,0.0330,0.0256,-0.2812,849.1238,21.6600,44.7600,-39.9000,64.0000,-28.316,42.505,26.908,49.17435623,-121.67775008,0.00000000,
4.2080,-0.3327,-0.6739,0.6557,0.3160,0.1175,0.2448,0.0330,0.0256,-0.2812,849.1238,21.6600,44.7600,-39.9000,64.0000,-28.316,42.505,26.908,49.17435623,-121.67775008,0.00000000,
4.2290,-0.1964,-0.7452,0.5330,0.3160,0.1175,0.2448,0.0330,0.0256,-0.2812,849.1238,21.6600,44.7600,-39.9000,64.0000,-142.788,52.682,20.229,49.17435623,-121.67775008,0.00000000,
4.2330,-0.1964,-0.7452,0.5330,0.3160,0.1175,0.2448,0.0330,0.0256,-0.2812,849.1238,21.5400,44.7000,-40.3800,64.0000,-145.100,52.682,20.229,49.17435623,-121.67775008,0.00000000,
4.2350,-0.1964,-0.7452,0.5330,0.3160,0.1175,0.2448,-0.1055,-0.1374,-1.0067,849.1238,21.5400,44.7000,-40.3800,64.0000,-145.100,52.682,20.229,49.17435623,-121.67775008,0.00000000,
4.2700,-0.1964,-0.7452,0.5330,0.7720,-0.4033,-1.2023,-0.1055,-0.1374,-1.0067,849.1238,21.5400,44.7000,-40.3800,64.0000,-145.100,52.682,20.229,49.17435623,-121.67775008,0.00000000,
4.2980,-0.2389,-0.3822,0.6830,0.7720,-0.4033,-1.2023,-0.1055,-0.1374,-1.0067,849.1238,21.5400,44.7000,-40.3800,64.0000,-20.819,27.840,19.281,49.17435623,-121.67775008,0.00000000,
4.3060,-0.2389,-0.3822,0.6830,0.7720,-0.4033,-1.2023,-0.1055,-0.1374,-1.0067,849.1238,21.4200,44.5800,-40.8000,64.0000,-20.409,27.840,19.281,49.17435623,-121.67775008,0.00000000,
4.3110,-0.2389,-0.3822,0.6830,0.7720,-0.4033,-1.2023,0.0437,-0.5529,-1.9047,849.1238,21.4200,44.5800,-40.8000,64.0000,-20.409,27.840,19.281,49.17435623,-121.67775008,0.00000000,
4.3290,-0.2389,-0.3822,0.6830,-0.2157,3.3401,0.2554,0.0437,-0.5529,-1.9047,849.1238,21.4200,44.5800,-40.8000,64.0000,-20.409,27.840,19.281,49.17435623,-121.67775008,0.00000000,
4.3500,-0.4139,-0.6778,0.5765,-0.2157,3.3401,0.2554,0.0437,-0.5529,-1.9047,849.1238,21.4200,44.5800,-40.8000,64.0000,83.571,43.683,35.674,49.17435623,-121.67775008,0.00000000,
4.3510,-0.4139,-0.6778,0.5765,-0.2157,3.3401,0.2554,0.0437,-0.5529,-1.9047,849.1238,21.2400,44.4000,-41.1600,64.0000,86.095,43.683,35.674,49.17435623,-121.67775008,0.00000000,
4.3530,-0.4139,-0.6778,0.5765,-0.2157,3.3401,0.2554,0.1087,-0.0511,-0.2354,849.1238,21.2400,44.4000,-41.1600,64.0000,86.095,43.683,35.674,49.17435623,-121.67775008,0.00000000,
4.3700,-0.4139,-0.6778,0.5765,-0.2157,3.3401,0.2554,0.1087,-0.0511,-0.2354,849.1401,21.2400,44.4000,-41.1600,64.0000,86.095,43.683,35.674,49.17435623,-121.67775008,0.00000000,
4.3710,-0.4139,-0.6778,0.5765,-0.2157,3.3401,0.2554,0.1087,-0.0511,-0.2354,849.1401,21.2400,44.4000,-41.1600,1099.0000,86.095,43.683,35.674,49.17435623,-121.67775008,0.00000000,
4.3890,-0.4139,-0.6778,0.5765,-2.0363,0.3915,-0.8787,0.1087,-0.0511,-0.2354,849.1401,21.2400,44.4000,-41.1600,1099.0000,86.095,43.683,35.674,49.17435623,-121.67775008,0.00000000,
4.4150,-0.1705,-0.9978,0.6522,-2.0363,0.3915,-0.8787,0.1087,-0.0511,-0.2354,849.1401,21.2400,44.4000,-41.1600,1099.0000,-141.160,55.955,14.652,49.17435623,-121.67775008,0.00000000,
4.4180,-0.1705,-0.9978,0.6522,-2.0363,0.3915,-0.8787,0.1087,-0.0511,-0.2354,849.1401,21.0600,44.1000,-41.4000,1099.0000,-142.516,55.955,14.652,49.17435623,-121.67775008,0.00000000,
4.4220,-0.1705,-0.9978,0.6522,-2.0363,0.3915,-0.8787,-0.1790,-0.1246,0.2716,849.1401,21.0600,44.1000,-41.4000,1099.0000,-142.516,55.955,14.652,49.17435623,-121.67775008,0.00000000,
4.4480,-0.1705,-0.9978,0.6522,0.4437,-2.7174,-0.0763,-0.1790,-0.1246,0.2716,849.1401,21.0600,44.1000,-41.4000,1099.0000,-142.516,55.955,14.652,49.17435623,-121.67775008,0.00000000,
4.4770,-0.1788,-0.4892,0.9058,0.4437,-2.7174,-0.0763,-0.1790,-0.1246,0.2716,849.1401,21.0600,44.1000,-41.4000,1099.0000,-35.016,27.914,11.168,49.17435623,-121.67775008,0.00000000,
4.4820,-0.1788,-0.4892,0.9058,0.4437,-2.7174,-0.0763,-0.1790,-0.1246,0.2716,849.1401,20.8200,43.8600,-41.5200,1099.0000,-34.828,27.914,11.168,49.17435623,-121.67775008,0.00000000,
4.4880,-0.1788,-0.4892,0.9058,0.4437,-2.7174,-0.0763,-0.1374,0.0224,0.0075,849.1401,20.8200,43.8600,-41.5200,1099.0000,-34.828,27.914,11.168,49.17435623,-121.67775008,0.00000000,
4.5070,-0.1788,-0.4892,0.9058,0.3921,2.2524,2.4024,-0.1374,0.0224,0.0075,849.1401,20.8200,43.8600,-41.5200,1099.0000,-34.828,27.914,11.168,49.17435623,-121.67775008,0.00000000,
4.5300,-0.1129,-0.5273,0.3762,0.3921,2.2524,2.4024,-0.1374,0.0224,0.0075,849.1401,20.8200,43.8600,-41.5200,1099.0000,-142.644,53.319,16.702,49.17435623,-121.67775008,0.00000000,
4.5320,-0.1129,-0.5273,0.3762,0.3921,2.2524,2.4024,-0.1374,0.0224,0.0075,849.1401,20.5200,43.5600,-41.5800,1099.0000,-144.112,53.319,16.702,49.17435623,-121.67775008,0.00000000,
4.5330,-0.1129,-0.5273,0.3762,0.3921,2.2524,2.4024,-0.4112,0.3558,0.1023,849.1401,20.5200,43.5600,-41.5800,1099.0000,-144.112,53.319,16.702,49.17435623,-121.67775008,0.00000000,
4.5460,-0.1129,-0.5273,0.3762,0.3921,2.2524,2.4024,-0.4112,0.3558,0.1023,849.0918,20.5200,43.5600,-41.5800,1099.0000,-144.112,53.319,16.702,49.17435623,-121.67775008,0.00000000,
4.5480,-0.1129,-0.5273,0.3762,0.3921,2.2524,2.4024,-0.4112,0.3558,0.1023,849.0918,20.5200,43.5600,-41.5800,62.0000,-144.112,53.319,16.702,49.17435623,-121.67775008,0.00000000,
4.5680,-0.1129,-0.5273,0.3762,1.1478,1.9387,-2.6849,-0.4112,0.3558,0.1023,849.0918,20.5200,43.5600,-41.5800,62.0000,-144.112,53.319,16.702,49.17435623,-121.67775008,0.00000000,
4.5970,-0.2394,-0.6015,0.4646,1.1478,1.9387,-2.6849,-0.4112,0.3558,0.1023,849.0918,20.5200,43.5600,-41.5800,62.0000,172.850,49.013,27.263,49.17435623,-121.67775008,0.00000000,
4.6020,-0.2394,-0.6015,0.4646,1.1478,1.9387,-2.6849,-0.4112,0.3558,0.1023,849.0918,20.1600,43.3200,-41.6400,62.0000,169.935,49.013,27.263,49.17435623,-121.67775008,0.00000000,
4.6060,-0.2394,-0.6015,0.4646,1.1478,1.9387,-2.6849,0.1427,-0.0799,0.0991,849.0918,20.1600,43.3200,-41.6400,62.0000,169.935,49.013,27.263,49.17435623,-121.67775008,0.00000000,
4.6350,-0.2394,-0.6015,0.4646,-0.2006,1.1248,-1.9497,0.1427,-0.0799,0.0991,849.0918,20.1600,43.3200,-41.6400,62.0000,169.935,49.013,27.263,49.17435623,-121.67775008,0.00000000,
4.6590,-0.0899,-0.7076,0.6830,-0.2006,1.1248,-1.9497,0.1427,-0.0799,0.0991,849.0918,20.1600,43.3200,-41.6400,62.0000,-94.889,45.766,7.499,49.17435623,-121.67775008,0.00000000,
4.6670,-0.0899,-0.7076,0.6830,-0.2006,1.1248,-1.9497,0.1427,-0.0799,0.0991,849.0918,19.6800,43.0200,-41.5200,62.0000,-95.367,45.766,7.499,49.17435623,-121.67775008,0.00000000,
4.6710,-0.0899,-0.7076,0.6830,-0.2006,1.1248,-1.9497,0.1971,0.5209,-0.9161,849.0918,19.6800,43.0200,-41.5200,62.0000,-95.367,45.766,7.499,49.17435623,-121.67775008,0.00000000,
4.6860,-0.0899,-0.7076,0.6830,0.9624,0.1740,0.1939,0.1971,0.5209,-0.9161,849.0918,19.6800,43.0200,-41.5200,62.0000,-95.367,45.766,7.499,49.17435623,-121.67775008,0.00000000,
4.7100,-0.2761,-0.8522,0.5750,0.9624,0.1740,0.1939,0.1971,0.5209,-0.9161,849.0918,19.6800,43.0200,-41.5200,62.0000,178.812,53.185,25.645,49.17432717,-121.67778045,0.31999999,
4.7140,-0.2761,-0.8522,0.5750,0.9624,0.1740,0.1939,0.1971,0.5209,-0.9161,849.0918,19.0200,42.7800,-41.4600,62.0000,175.808,53.185,25.645,49.17432717,-121.67778045,0.31999999,
4.7160,-0.2761,-0.8522,0.5750,0.9624,0.1740,0.1939,-0.0053,0.5358,-0.9374,849.0918,19.0200,42.7800,-41.4600,62.0000,175.808,53.185,25.645,49.17432717,-121.67778045,0.31999999,
4.7250,-0.2761,-0.8522,0.5750,0.9624,0.1740,0.1939,-0.0053,0.5358,-0.9374,849.0828,19.0200,42.7800,-41.4600,62.0000,175.808,53.185,25.645,49.17432717,-121.67778045,0.31999999,
4.7320,-0.2761,-0.8522,0.5750,0.9624,0.1740,0.1939,-0.0053,0.5358,-0.9374,849.0828,19.0200,42.7800,-41.4600,0.0000,175.808,53.185,25.645,49.17432717,-121.67778045,0.31999999,
4.7470,-0.2761,-0.8522,0.5750,-0.8789,-1.1076,-0.7174,-0.0053,0.5358,-0.9374,849.0828,19.0200,42.7800,-41.4600,0.0000,175.808,53.185,25.645,49.17432717,-121.67778045,0.31999999,
4.7680,-0.2125,-0.8063,0.3141,-0.8789,-1.1076,-0.7174,-0.0053,0.5358,-0.9374,849.0828,19.0200,42.7800,-41.4600,0.0000,161.612,64.808,34.084,49.17432717,-121.67778045,0.31999999,
4.7690,-0.2125,-0.8063,0.3141,-0.8789,-1.1076,-0.7174,-0.0053,0.5358,-0.9374,849.0828,18.0600,42.5400,-41.2200,0.0000,159.641,64.808,34.084,49.17432717,-121.67778045,0.31999999,
4.7700,-0.2125,-0.8063,0.3141,-0.8789,-1.1076,-0.7174,-0.5262,1.0365,-0.2365,849.0828,18.0600,42.5400,-41.2200,0.0000,159.641,64.808,34.084,49.17432717,-121.67778045,0.31999999,
4.8130,-0.2125,-0.8063,0.3141,-0.0598,-0.4326,-2.9460,-0.5262,1.0365,-0.2365,849.0828,18.0600,42.5400,-41.2200,0.0000,159.641,64.808,34.084,49.17432717,-121.67778045,0.31999999,
4.8330,-0.0645,-0.8371,0.4680,-0.0598,-0.4326,-2.9460,-0.5262,1.0365,-0.2365,849.0828,18.0600,42.5400,-41.2200,0.0000,-143.868,60.559,7.846,49.17432717,-121.67778045,0.31999999,
4.8360,-0.0645,-0.8371,0.4680,-0.0598,-0.4326,-2.9460,-0.5262,1.0365,-0.2365,849.0828,16.9800,42.2400,-40.9800,0.0000,-145.945,60.559,7.846,49.17432717,-121.67778045,0.31999999,
4.8400,-0.0645,-0.8371,0.4680,-0.0598,-0.4326,-2.9460,-0.6903,0.5145,-0.1150,849.0828,16.9800,42.2400,-40.9800,0.0000,-145.945,60.559,7.846,49.17432717,-121.67778045,0.31999999,
4.8710,-0.0645,-0.8371,0.4680,1.4266,-0.3457,-0.9081,-0.6903,0.5145,-0.1150,849.0828,16.9800,42.2400,-40.9800,0.0000,-145.945,60.559,7.846,49.17432717,-121.67778045,0.31999999,
4.8940,-0.1402,-1.1180,0.3977,1.4266,-0.3457,-0.9081,-0.6903,0.5145,-0.1150,849.0828,16.9800,42.2400,-40.9800,0.0000,-174.864,69.335,19.424,49.17432717,-121.67778045,0.31999999,
4.9020,-0.1402,-1.1180,0.3977,1.4266,-0.3457,-0.9081,-0.6903,0.5145,-0.1150,849.0828,15.7800,41.9400,-40.6800,0.0000,-177.021,69.335,19.424,49.17432717,-121.67778045,0.31999999,
4.9070,-0.1402,-1.1180,0.3977,1.4266,-0.3457,-0.9081,-0.9076,0.4879,-0.0373,849.0828,15.7800,41.9400,-40.6800,0.0000,-177.021,69.335,19.424,49.17432717,-121.67778045,0.31999999,
4.9110,-0.1402,-1.1180,0.3977,1.4266,-0.3457,-0.9081,-0.9076,0.4879,-0.0373,848.9031,15.7800,41.9400,-40.6800,0.0000,-177.021,69.335,19.424,49.17432717,-121.67778045,0.31999999,
4.9140,-0.1402,-1.1180,0.3977,1.4266,-0.3457,-0.9081,-0.9076,0.4879,-0.0373,848.9031,15.7800,41.9400,-40.6800,0.0000,-177.021,69.335,19.424,49.17432717,-121.67778045,0.31999999,
4.9310,-0.1402,-1.1180,0.3977,0.7811,-2.7577,-1.0328,-0.9076,0.4879,-0.0373,848.9031,15.7800,41.9400,-40.6800,0.0000,-177.021,69.335,19.424,49.17432717,-121.67778045,0.31999999,
4.9530,-0.2360,-0.6030,0.6903,0.7811,-2.7577,-1.0328,-0.9076,0.4879,-0.0373,848.9031,15.7800,41.9400,-40.6800,0.0000,-21.276,39.575,18.873,49.17432717,-121.67778045,0.31999999,
4.9570,-0.2360,-0.6030,0.6903,0.7811,-2.7577,-1.0328,-0.9076,0.4879,-0.0373,848.9031,14.5200,41.6400,-40.2000,0.0000,-8.589,39.575,18.873,49.17432717,-121.67778045,0.31999999,
4.9600,-0.2360,-0.6030,0.6903,0.7811,-2.7577,-1.0328,-0.4474,0.3324,0.2898,848.9031,14.5200,41.6400,-40.2000,0.0000,-8.589,39.575,18.873,49.17432717,-121.67778045,0.31999999,
4.9890,-0.2360,-0.6030,0.6903,-0.0162,2.3486,2.0010,-0.4474,0.3324,0.2898,848.9031,14.5200,41.6400,-40.2000,0.0000,-8.589,39.575,18.873,49.17432717,-121.67778045,0.31999999,
5.0210,-0.4060,-0.8229,0.6928,-0.0162,2.3486,2.0010,-0.4474,0.3324,0.2898,848.9031,14.5200,41.6400,-40.2000,0.0000,97.268,45.700,30.374,49.17432717,-121.67778045,0.31999999,
5.0330,-0.4060,-0.8229,0.6928,-0.0162,2.3486,2.0010,-0.4474,0.3324,0.2898,848.9031,13.3200,41.3400,-39.6000,0.0000,92.681,45.700,30.374,49.17432717,-121.67778045,0.31999999,
5.0370,-0.4060,-0.8229,0.6928,-0.0162,2.3486,2.0010,0.0575,0.2770,0.0575,848.9031,13.3200,41.3400,-39.6000,0.0000,92.681,45.700,30.374,49.17432717,-121.67778045,0.31999999,
5.0500,-0.4060,-0.8229,0.6928,-1.6117,0.2340,2.1305,0.0575,0.2770,0.0575,848.9031,13.3200,41.3400,-39.6000,0.0000,92.681,45.700,30.374,49.17432717,-121.67778045,0.31999999,
5.0700,-0.3811,-0.9128,0.4250,-1.6117,0.2340,2.1305,0.0575,0.2770,0.0575,848.9031,13.3200,41.3400,-39.6000,0.0000,122.724,57.977,41.882,49.17432717,-121.67778045,0.31999999,
5.0720,-0.3811,-0.9128,0.4250,-1.6117,0.2340,2.1305,0.0575,0.2770,0.0575,848.9031,12.1800,41.1000,-38.7600,0.0000,119.649,57.977,41.882,49.17432717,-121.67778045,0.31999999,
5.0730,-0.3811,-0.9128,0.4250,-1.6117,0.2340,2.1305,-0.1012,0.0714,-0.1811,848.9031,12.1800,41.1000,-38.7600,0.0000,119.649,57.977,41.882,49.17432717,-121.67778045,0.31999999,
5.0860,-0.3811,-0.9128,0.4250,-1.6117,0.2340,2.1305,-0.1012,0.0714,-0.1811,848.9387,12.1800,41.1000,-38.7600,0.0000,119.649,57.977,41.882,49.17432717,-121.67778045,0.31999999,
5.0890,-0.3811,-0.9128,0.4250,-1.6117,0.2340,2.1305,-0.1012,0.0714,-0.1811,848.9387,12.1800,41.1000,-38.7600,0.0000,119.649,57.977,41.882,49.17432717,-121.67778045,0.31999999,
5.1080,-0.3811,-0.9128,0.4250,-1.3540,-0.5815,-0.3676,-0.1012,0.0714,-0.1811,848.9387,12.1800,41.1000,-38.7600,0.0000,119.649,57.977,41.882,49.17432717,-121.67778045,0.31999999,
5.1350,-0.3533,-0.9841,0.3752,-1.3540,-0.5815,-0.3676,-0.1012,0.0714,-0.1811,848.9387,12.1800,41.1000,-38.7600,0.0000,126.980,62.361,43.276,49.17432717,-121.67778045,0.31999999,
5.1400,-0.3533,-0.9841,0.3752,-1.3540,-0.5815,-0.3676,-0.1012,0.0714,-0.1811,848.9387,10.9800,40.8600,-37.9200,0.0000,124.065,62.361,43.276,49.17432717,-121.67778045,0.31999999,
5.1450,-0.3533,-0.9841,0.3752,-1.3540,-0.5815,-0.3676,-0.2205,-0.0085,-0.0692,848.9387,10.9800,40.8600,-37.9200,0.0000,124.065,62.361,43.276,49.17432717,-121.67778045,0.31999999,
5.1670,-0.3533,-0.9841,0.3752,-1.0544,-1.2010,-0.6914,-0.2205,-0.0085,-0.0692,848.9387,10.9800,40.8600,-37.9200,0.0000,124.065,62.361,43.276,49.17432717,-121.67778045,0.31999999,
5.1890,-0.2023,-0.8493,0.4900,-1.0544,-1.2010,-0.6914,-0.2205,-0.0085,-0.0692,848.9387,10.9800,40.8600,-37.9200,0.0000,159.656,58.027,22.431,49.17432717,-121.67778045,0.31999999,
5.1910,-0.2023,-0.8493,0.4900,-1.0544,-1.2010,-0.6914,-0.2205,-0.0085,-0.0692,848.9387,9.8400,40.6800,-37.0200,0.0000,154.762,58.027,22.431,49.17432717,-121.67778045,0.31999999,
5.1920,-0.2023,-0.8493,0.4900,-1.0544,-1.2010,-0.6914,0.0117,-0.1513,0.0618,848.9387,9.8400,40.6800,-37.0200,0.0000,154.762,58.027,22.431,49.17432717,-121.67778045,0.31999999,
5.2300,-0.2023,-0.8493,0.4900,0.3675,0.1122,0.3865,0.0117,-0.1513,0.0618,848.9387,9.8400,40.6800,-37.0200,0.0000,154.762,58.027,22.431,49.17432717,-121.67778045,0.31999999,
5.2540,-0.2169,-0.8488,0.3796,0.3675,0.1122,0.3865,0.0117,-0.1513,0.0618,848.9387,9.8400,40.6800,-37.0200,0.0000,145.478,62.747,29.749,49.17432717,-121.67778045,0.31999999,
5.2580,-0.2169,-0.8488,0.3796,0.3675,0.1122,0.3865,0.0117,-0.1513,0.0618,848.9387,8.7600,40.4400,-36.1200,0.0000,142.040,62.747,29.749,49.17432717,-121.67778045,0.31999999,
5.2630,-0.2169,-0.8488,0.3796,0.3675,0.1122,0.3865,0.0053,-0.0533,-0.1800,848.9387,8.7600,40.4400,-36.1200,0.0000,142.040,62.747,29.749,49.17432717,-121.67778045,0.31999999,
5.2700,-0.2169,-0.8488,0.3796,0.3675,0.1122,0.3865,0.0053,-0.0533,-0.1800,849.0591,8.7600,40.4400,-36.1200,0.0000,142.040,62.747,29.749,49.17432717,-121.67778045,0.31999999,
5.2710,-0.2169,-0.8488,0.3796,0.3675,0.1122,0.3865,0.0053,-0.0533,-0.1800,849.0591,8.7600,40.4400,-36.1200,0.0000,142.040,62.747,29.749,49.17432717,-121.67778045,0.31999999,
5.2870,-0.2169,-0.8488,0.3796,0.1064,0.1675,-0.6597,0.0053,-0.0533,-0.1800,849.0591,8.7600,40.4400,-36.1200,0.0000,142.040,62.747,29.749,49.17432717,-121.67778045,0.31999999,
5.3090,-0.2570,-0.7901,0.3747,0.1064,0.1675,-0.6597,0.0053,-0.0533,-0.1800,849.0591,8.7600,40.4400,-36.1200,0.0000,127.015,60.099,34.446,49.17432717,-121.67778045,0.31999999,
5.3120,-0.2570,-0.7901,0.3747,0.1064,0.1675,-0.6597,0.0053,-0.0533,-0.1800,849.0591,7.6200,40.2000,-35.2800,0.0000,123.115,60.099,34.446,49.17432717,-121.67778045,0.31999999,
5.3140,-0.2570,-0.7901,0.3747,0.1064,0.1675,-0.6597,-0.0362,-0.0288,-0.1491,849.0591,7.6200,40.2000,-35.2800,0.0000,123.115,60.099,34.446,49.17432717,-121.67778045,0.31999999,
5.3470,-0.2570,-0.7901,0.3747,-0.3541,0.7846,-0.6588,-0.0362,-0.0288,-0.1491,849.0591,7.6200,40.2000,-35.2800,0.0000,123.115,60.099,34.446,49.17432717,-121.67778045,0.31999999,
5.3770,-0.2399,-0.8854,0.4328,-0.3541,0.7846,-0.6588,-0.0362,-0.0288,-0.1491,849.0591,7.6200,40.2000,-35.2800,0.0000,135.297,60.798,28.998,49.17432717,-121.67778045,0.31999999,
5.3840,-0.2399,-0.8854,0.4328,-0.3541,0.7846,-0.6588,-0.0362,-0.0288,-0.1491,849.0591,6.6000,40.0200,-34.5600,0.0000,131.318,60.798,28.998,49.17432717,-121.67778045,0.31999999,
5.3900,-0.2399,-0.8854,0.4328,-0.3541,0.7846,-0.6588,0.2908,-0.5689,-0.0543,849.0591,6.6000,40.0200,-34.5600,0.0000,131.318,60.798,28.998,49.17432717,-121.67778045,0.31999999,
5.4060,-0.2399,-0.8854,0.4328,-0.3070,-0.1900,-0.2256,0.2908,-0.5689,-0.0543,849.0591,6.6000,40.0200,-34.5600,0.0000,131.318,60.798,28.998,49.17432717,-121.67778045,0.31999999,
5.4280,-0.1823,-0.9822,0.5140,-0.3070,-0.1900,-0.2256,0.2908,-0.5689,-0.0543,849.0591,6.6000,40.0200,-34.5600,0.0000,154.107,60.960,19.525,49.17432717,-121.67778045,0.31999999,
5.4300,-0.1823,-0.9822,0.5140,-0.3070,-0.1900,-0.2256,0.2908,-0.5689,-0.0543,849.0591,5.5800,39.9000,-33.8400,0.0000,149.192,60.960,19.525,49.17432717,-121.67778045,0.31999999,
5.4320,-0.1823,-0.9822,0.5140,-0.3070,-0.1900,-0.2256,0.0511,0.0863,0.1055,849.0591,5.5800,39.9000,-33.8400,0.0000,149.192,60.960,19.525,49.17432717,-121.67778045,0.31999999,
5.4450,-0.1823,-0.9822,0.5140,-0.3070,-0.1900,-0.2256,0.0511,0.0863,0.1055,849.0996,5.5800,39.9000,-33.8400,0.0000,149.192,60.960,19.525,49.17432717,-121.67778045,0.31999999,
5.4470,-0.1823,-0.9822,0.5140,-0.3070,-0.1900,-0.2256,0.0511,0.0863,0.1055,849.0996,5.5800,39.9000,-33.8400,0.0000,149.192,60.960,19.525,49.17432717,-121.67778045,0.31999999,
5.4670,-0.1823,-0.9822,0.5140,0.2886,-1.1772,0.5096,0.0511,0.0863,0.1055,849.0996,5.5800,39.9000,-33.8400,0.0000,149.192,60.960,19.525,49.17432717,-121.67778045,0.31999999,
5.4910,-0.1099,-0.9489,0.4182,0.2886,-1.1772,0.5096,0.0511,0.0863,0.1055,849.0996,5.5800,39.9000,-33.8400,0.0000,167.552,65.503,14.729,49.17432717,-121.67778045,0.31999999,
5.4940,-0.1099,-0.9489,0.4182,0.2886,-1.1772,0.5096,0.0511,0.0863,0.1055,849.0996,4.6200,39.8400,-33.1200,0.0000,163.904,65.503,14.729,49.17432717,-121.67778045,0.31999999,
5.4970,-0.1099,-0.9489,0.4182,0.2886,-1.1772,0.5096,0.3409,0.2567,0.0117,849.0996,4.6200,39.8400,-33.1200,0.0000,163.904,65.503,14.729,49.17432717,-121.67778045,0.31999999,
5.5240,-0.1099,-0.9489,0.4182,1.0220,-0.9339,-0.5682,0.3409,0.2567,0.0117,849.0996,4.6200,39.8400,-33.1200,0.0000,163.904,65.503,14.729,49.17432717,-121.67778045,0.31999999,
5.5460,-0.2243,-0.8317,0.3874,1.0220,-0.9339,-0.5682,0.3409,0.2567,0.0117,849.0996,4.6200,39.8400,-33.1200,0.0000,123.687,61.709,30.067,49.17432717,-121.67778045,0.31999999,
5.5480,-0.2243,-0.8317,0.3874,1.0220,-0.9339,-0.5682,0.3409,0.2567,0.0117,849.0996,3.6600,39.7800,-32.4000,0.0000,119.699,61.709,30.067,49.17432717,-121.67778045,0.31999999,
5.5500,-0.2243,-0.8317,0.3874,1.0220,-0.9339,-0.5682,0.0756,0.3302,0.0170,849.0996,3.6600,39.7800,-32.4000,0.0000,119.699,61.709,30.067,49.17432717,-121.67778045,0.31999999,
5.5850,-0.2243,-0.8317,0.3874,0.0031,0.2035,-0.8442,0.0756,0.3302,0.0170,849.0996,3.6600,39.7800,-32.4000,0.0000,119.699,61.709,30.067,49.17432717,-121.67778045,0.31999999,
5.6220,-0.2272,-0.8351,0.4192,0.0031,0.2035,-0.8442,0.0756,0.3302,0.0170,849.0996,3.6600,39.7800,-32.4000,0.0000,118.108,60.277,28.459,49.17432717,-121.67778045,0.31999999,
5.6330,-0.2272,-0.8351,0.4192,0.0031,0.2035,-0.8442,0.0756,0.3302,0.0170,849.0996,2.9400,39.7200,-31.8000,0.0000,114.777,60.277,28.459,49.17432717,-121.67778045,0.31999999,
5.6450,-0.2272,-0.8351,0.4192,0.0031,0.2035,-0.8442,0.0160,0.2407,-0.1321,849.0996,2.9400,39.7200,-31.8000,0.0000,114.777,60.277,28.459,49.17432717,-121.67778045,0.31999999,
5.6520,-0.2272,-0.8351,0.4192,0.0031,0.2035,-0.8442,0.0160,0.2407,-0.1321,849.0588,2.9400,39.7200,-31.8000,0.0000,114.777,60.277,28.459,49.17432717,-121.67778045,0.31999999,
5.6560,-0.2272,-0.8351,0.4192,0.0031,0.2035,-0.8442,0.0160,0.2407,-0.1321,849.0588,2.9400,39.7200,-31.8000,0.0000,114.777,60.277,28.459,49.17432717,-121.67778045,0.31999999,
5.6620,-0.2272,-0.8351,0.4192,-0.0381,0.1922,-0.4986,0.0160,0.2407,-0.1321,849.0588,2.9400,39.7200,-31.8000,0.0000,114.777,60.277,28.459,49.17432717,-121.67778045,0.31999999,
5.6780,-0.2345,-0.8962,0.4324,-0.0381,0.1922,-0.4986,0.0160,0.2407,-0.1321,849.0588,2.9400,39.7200,-31.8000,0.0000,117.763,61.239,28.478,49.17432717,-121.67778045,0.31999999,
5.6810,-0.2345,-0.8962,0.4324,-0.0381,0.1922,-0.4986,0.0160,0.2407,-0.1321,849.0588,2.3400,39.6600,-31.1400,0.0000,114.729,61.239,28.478,49.17432717,-121.67778045,0.31999999,
5.6820,-0.2345,-0.8962,0.4324,-0.0381,0.1922,-0.4986,0.0128,0.2866,-0.1257,849.0588,2.3400,39.6600,-31.1400,0.0000,114.729,61.239,28.478,49.17432717,-121.67778045,0.31999999,
5.7040,-0.2345,-0.8962,0.4324,-0.1069,-0.3801,-0.3199,0.0128,0.2866,-0.1257,849.0588,2.3400,39.6600,-31.1400,0.0000,114.729,61.239,28.478,49.17429142,-121.67782046,0.00000000,
5.7280,-0.2296,-0.9846,0.4646,-0.1069,-0.3801,-0.3199,0.0128,0.2866,-0.1257,849.0588,2.3400,39.6600,-31.1400,0.0000,121.420,62.239,26.302,49.17429142,-121.67782046,0.00000000,
5.7300,-0.2296,-0.9846,0.4646,-0.1069,-0.3801,-0.3199,0.0128,0.2866,-0.1257,849.0588,1.9800,39.7200,-30.6000,0.0000,119.067,62.239,26.302,49.17429142,-121.67782046,0.00000000,
5.7320,-0.2296,-0.9846,0.4646,-0.1069,-0.3801,-0.3199,0.1257,0.2322,0.1321,849.0588,1.9800,39.7200,-30.6000,0.0000,119.067,62.239,26.302,49.17429142,-121.67782046,0.00000000,
5.7700,-0.2296,-0.9846,0.4646,0.0603,-1.2629,0.0256,0.1257,0.2322,0.1321,849.0588,1.9800,39.7200,-30.6000,0.0000,119.067,62.239,26.302,49.17429142,-121.67782046,0.00000000,
5.7950,-0.2428,-0.9045,0.4573,0.0603,-1.2629,0.0256,0.1257,0.2322,0.1321,849.0588,1.9800,39.7200,-30.6000,0.0000,109.760,60.212,27.971,49.17429142,-121.67782046,0.00000000,
5.8020,-0.2428,-0.9045,0.4573,0.0603,-1.2629,0.0256,0.1257,0.2322,0.1321,849.0588,1.8600,39.7800,-30.0600,0.0000,107.949,60.212,27.971,49.17429142,-121.67782046,0.00000000,
5.8100,-0.2428,-0.9045,0.4573,0.0603,-1.2629,0.0256,0.3015,0.2471,0.0000,849.0588,1.8600,39.7800,-30.0600,0.0000,107.949,60.212,27.971,49.17429142,-121.67782046,0.00000000,
5.8120,-0.2428,-0.9045,0.4573,0.0603,-1.2629,0.0256,0.3015,0.2471,0.0000,849.0933,1.8600,39.7800,-30.0600,0.0000,107.949,60.212,27.971,49.17429142,-121.67782046,0.00000000,
5.8130,-0.2428,-0.9045,0.4573,0.0603,-1.2629,0.0256,0.3015,0.2471,0.0000,849.0933,1.8600,39.7800,-30.0600,0.0000,107.949,60.212,27.971,49.17429142,-121.67782046,0.00000000,
5.8260,-0.2428,-0.9045,0.4573,-0.0318,-0.5490,-0.1575,0.3015,0.2471,0.0000,849.0933,1.8600,39.7800,-30.0600,0.0000,107.949,60.212,27.971,49.17429142,-121.67782046,0.00000000,
5.8480,-0.1437,-0.6568,0.4500,-0.0318,-0.5490,-0.1575,0.3015,0.2471,0.0000,849.0933,1.8600,39.7800,-30.0600,0.0000,93.735,54.277,17.706,49.17429142,-121.67782046,0.00000000,
5.8500,-0.1437,-0.6568,0.4500,-0.0318,-0.5490,-0.1575,0.3015,0.2471,0.0000,849.0933,1.8000,39.8400,-29.5200,0.0000,90.108,54.277,17.706,49.17429142,-121.67782046,0.00000000,
5.8510,-0.1437,-0.6568,0.4500,-0.0318,-0.5490,-0.1575,0.3462,0.1662,-0.1651,849.0933,1.8000,39.8400,-29.5200,0.0000,90.108,54.277,17.706,49.17429142,-121.67782046,0.00000000,
5.8890,-0.1437,-0.6568,0.4500,0.8731,1.8064,-0.3892,0.3462,0.1662,-0.1651,849.0933,1.8000,39.8400,-29.5200,0.0000,90.108,54.277,17.706,49.17429142,-121.67782046,0.00000000,
5.9210,-0.3577,-0.7300,0.4236,0.8731,1.8064,-0.3892,0.3462,0.1662,-0.1651,849.0933,1.8000,39.8400,-29.5200,0.0000,73.583,52.788,40.178,49.17429142,-121.67782046,0.00000000,
5.9300,-0.3577,-0.7300,0.4236,0.8731,1.8064,-0.3892,0.3462,0.1662,-0.1651,849.0933,1.8600,39.9600,-29.1000,0.0000,72.403,52.788,40.178,49.17429142,-121.67782046,0.00000000,
5.9320,-0.3577,-0.7300,0.4236,0.8731,1.8064,-0.3892,-0.0746,0.1683,-0.1672,849.0933,1.8600,39.9600,-29.1000,0.0000,72.403,52.788,40.178,49.17429142,-121.67782046,0.00000000,
5.9440,-0.3577,-0.7300,0.4236,-1.1836,1.1355,-0.5456,-0.0746,0.1683,-0.1672,849.0933,1.8600,39.9600,-29.1000,0.0000,72.403,52.788,40.178,49.17429142,-121.67782046,0.00000000,
5.9700,-0.8033,-0.4862,0.9674,-1.1836,1.1355,-0.5456,-0.0746,0.1683,-0.1672,849.0933,1.8600,39.9600,-29.1000,0.0000,30.815,21.141,39.705,49.17429142,-121.67782046,0.00000000,
5.9720,-0.8033,-0.4862,0.9674,-1.1836,1.1355,-0.5456,-0.0746,0.1683,-0.1672,849.0933,1.8600,40.0800,-28.8600,0.0000,30.434,21.141,39.705,49.17429142,-121.67782046,0.00000000,
5.9730,-0.8033,-0.4862,0.9674,-1.1836,1.1355,-0.5456,-0.5412,-2.5194,0.1097,849.0933,1.8600,40.0800,-28.8600,0.0000,30.434,21.141,39.705,49.17429142,-121.67782046,0.00000000,
5.9840,-0.8033,-0.4862,0.9674,-1.1836,1.1355,-0.5456,-0.5412,-2.5194,0.1097,849.0908,1.8600,40.0800,-28.8600,0.0000,30.434,21.141,39.705,49.17429142,-121.67782046,0.00000000,
5.9870,-0.8033,-0.4862,0.9674,-1.1836,1.1355,-0.5456,-0.5412,-2.5194,0.1097,849.0908,1.8600,40.0800,-28.8600,0.0000,30.434,21.141,39.705,49.17429142,-121.67782046,0.00000000,
6.0090,-0.8033,-0.4862,0.9674,-5.2012,3.3677,4.6955,-0.5412,-2.5194,0.1097,849.0908,1.8600,40.0800,-28.8600,0.0000,30.434,21.141,39.705,49.17429142,-121.67782046,0.00000000,
6.0380,-0.3762,-0.9445,0.6928,-5.2012,3.3677,4.6955,-0.5412,-2.5194,0.1097,849.0908,1.8600,40.0800,-28.8600,0.0000,65.507,50.150,28.505,49.17429142,-121.67782046,0.00000000,
6.0410,-0.3762,-0.9445,0.6928,-5.2012,3.3677,4.6955,-0.5412,-2.5194,0.1097,849.0908,1.8600,40.2000,-28.6800,0.0000,64.579,50.150,28.505,49.17429142,-121.67782046,0.00000000,
6.0430,-0.3762,-0.9445,0.6928,-5.2012,3.3677,4.6955,-0.3462,0.1076,0.1310,849.0908,1.8600,40.2000,-28.6800,0.0000,64.579,50.150,28.505,49.17429142,-121.67782046,0.00000000,
6.0650,-0.3762,-0.9445,0.6928,-0.9416,-1.1222,2.0497,-0.3462,0.1076,0.1310,849.0908,1.8600,40.2000,-28.6800,0.0000,64.579,50.150,28.505,49.17429142,-121.67782046,0.00000000,
6.0880,-0.2355,-0.9411,0.5091,-0.9416,-1.1222,2.0497,-0.3462,0.1076,0.1310,849.0908,1.8600,40.2000,-28.6800,0.0000,103.309,59.205,24.827,49.17429142,-121.67782046,0.00000000,
6.0900,-0.2355,-0.9411,0.5091,-0.9416,-1.1222,2.0497,-0.3462,0.1076,0.1310,849.0908,1.8600,40.3200,-28.5000,0.0000,102.335,59.205,24.827,49.17429142,-121.67782046,0.00000000,
6.0920,-0.2355,-0.9411,0.5091,-0.9416,-1.1222,2.0497,0.1182,-0.1364,0.2866,849.0908,1.8600,40.3200,-28.5000,0.0000,102.335,59.205,24.827,49.17429142,-121.67782046,0.00000000,
6.1320,-0.2355,-0.9411,0.5091,0.3269,-1.0423,0.2663,0.1182,-0.1364,0.2866,849.0908,1.8600,40.3200,-28.5000,0.0000,102.335,59.205,24.827,49.17429142,-121.67782046,0.00000000,
6.1540,-0.0088,-0.7413,0.3649,0.3269,-1.0423,0.2663,0.1182,-0.1364,0.2866,849.0908,1.8600,40.3200,-28.5000,0.0000,-171.436,63.783,1.381,49.17429142,-121.67782046,0.00000000,
6.1580,-0.0088,-0.7413,0.3649,0.3269,-1.0423,0.2663,0.1182,-0.1364,0.2866,849.0908,1.9200,40.4400,-28.3800,0.0000,-170.800,63.783,1.381,49.17429142,-121.67782046,0.00000000,
6.1640,-0.0088,-0.7413,0.3649,0.3269,-1.0423,0.2663,0.0746,0.0117,-0.0181,849.0908,1.9200,40.4400,-28.3800,0.0000,-170.800,63.783,1.381,49.17429142,-121.67782046,0.00000000,
6.1770,-0.0088,-0.7413,0.3649,0.3269,-1.0423,0.2663,0.0746,0.0117,-0.0181,849.0930,1.9200,40.4400,-28.3800,0.0000,-170.800,63.783,1.381,49.17429142,-121.67782046,0.00000000,
6.1810,-0.0088,-0.7413,0.3649,0.3269,-1.0423,0.2663,0.0746,0.0117,-0.0181,849.0930,1.9200,40.4400,-28.3800,0.0000,-170.800,63.783,1.381,49.17429142,-121.67782046,0.00000000,
6.1830,-0.0088,-0.7413,0.3649,2.3769,0.9994,-1.0938,0.0746,0.0117,-0.0181,849.0930,1.9200,40.4400,-28.3800,0.0000,-170.800,63.783,1.381,49.17429142,-121.67782046,0.00000000,
6.2040,-0.1178,-0.8346,0.4998,2.3769,0.9994,-1.0938,0.0746,0.0117,-0.0181,849.0930,1.9200,40.4400,-28.3800,0.0000,120.308,58.399,13.258,49.17429142,-121.67782046,0.00000000,
6.2060,-0.1178,-0.8346,0.4998,2.3769,0.9994,-1.0938,0.0746,0.0117,-0.0181,849.0930,1.9200,40.5600,-28.3200,0.0000,119.333,58.399,13.258,49.17429142,-121.67782046,0.00000000,
6.2080,-0.1178,-0.8346,0.4998,2.3769,0.9994,-1.0938,0.0053,0.3398,-0.1960,849.0930,1.9200,40.5600,-28.3200,0.0000,119.333,58.399,13.258,49.17429142,-121.67782046,0.00000000,
6.2440,-0.1178,-0.8346,0.4998,1.2350,0.1171,0.2467,0.0053,0.3398,-0.1960,849.0930,1.9200,40.5600,-28.3200,0.0000,119.333,58.399,13.258,49.17429142,-121.67782046,0.00000000,
6.2770,-0.3235,-0.9094,0.4084,1.2350,0.1171,0.2467,0.0053,0.3398,-0.1960,849.0930,1.9200,40.5600,-28.3200,0.0000,90.480,60.191,38.379,49.17429142,-121.67782046,0.00000000,
6.2840,-0.3235,-0.9094,0.4084,1.2350,0.1171,0.2467,0.0053,0.3398,-0.1960,849.0930,1.9200,40.6800,-28.2600,0.0000,90.122,60.191,38.379,49.17429142,-121.67782046,0.00000000,
6.2930,-0.3235,-0.9094,0.4084,1.2350,0.1171,0.2467,0.2099,0.4176,-0.1875,849.0930,1.9200,40.6800,-28.2600,0.0000,90.122,60.191,38.379,49.17429142,-121.67782046,0.00000000,
6.3030,-0.3235,-0.9094,0.4084,-0.7023,-0.6330,-0.6389,0.2099,0.4176,-0.1875,849.0930,1.9200,40.6800,-28.2600,0.0000,90.122,60.191,38.379,49.17429142,-121.67782046,0.00000000,
6.3330,-0.3098,-1.0061,0.4739,-0.7023,-0.6330,-0.6389,0.2099,0.4176,-0.1875,849.0930,1.9200,40.6800,-28.2600,0.0000,96.507,60.633,33.172,49.17429142,-121.67782046,0.00000000,
6.3370,-0.3098,-1.0061,0.4739,-0.7023,-0.6330,-0.6389,0.2099,0.4176,-0.1875,849.0930,1.9200,40.8000,-28.2000,0.0000,96.102,60.633,33.172,49.17429142,-121.67782046,0.00000000,
6.3420,-0.3098,-1.0061,0.4739,-0.7023,-0.6330,-0.6389,0.3345,0.3782,-0.0820,849.0930,1.9200,40.8000,-28.2000,0.0000,96.102,60.633,33.172,49.17429142,-121.67782046,0.00000000,
6.3460,-0.3098,-1.0061,0.4739,-0.7023,-0.6330,-0.6389,0.3345,0.3782,-0.0820,849.1006,1.9200,40.8000,-28.2000,0.0000,96.102,60.633,33.172,49.17429142,-121.67782046,0.00000000,
6.3520,-0.3098,-1.0061,0.4739,-0.7023,-0.6330,-0.6389,0.3345,0.3782,-0.0820,849.1006,1.9200,40.8000,-28.2000,0.0000,96.102,60.633,33.172,49.17429142,-121.67782046,0.00000000,
6.3680,-0.3098,-1.0061,0.4739,-0.5021,-1.6481,-0.0799,0.3345,0.3782,-0.0820,849.1006,1.9200,40.8000,-28.2000,0.0000,96.102,60.633,33.172,49.17429142,-121.67782046,0.00000000,
6.3940,-0.2096,-0.7799,0.5526,-0.5021,-1.6481,-0.0799,0.3345,0.3782,-0.0820,849.1006,1.9200,40.8000,-28.2000,0.0000,69.403,52.846,20.774,49.17429142,-121.67782046,0.00000000,
6.4000,-0.2096,-0.7799,0.5526,-0.5021,-1.6481,-0.0799,0.3345,0.3782,-0.0820,849.1006,1.9200,40.9200,-28.0800,0.0000,68.317,52.846,20.774,49.17429142,-121.67782046,0.00000000,
6.4040,-0.2096,-0.7799,0.5526,-0.5021,-1.6481,-0.0799,0.5486,0.1896,-0.1108,849.1006,1.9200,40.9200,-28.0800,0.0000,68.317,52.846,20.774,49.17429142,-121.67782046,0.00000000,
6.4280,-0.2096,-0.7799,0.5526,0.4317,0.4112,0.4029,0.5486,0.1896,-0.1108,849.1006,1.9200,40.9200,-28.0800,0.0000,68.317,52.846,20.774,49.17429142,-121.67782046,0.00000000,
6.4560,-0.4339,-0.9094,0.4724,0.4317,0.4112,0.4029,0.5486,0.1896,-0.1108,849.1006,1.9200,40.9200,-28.0800,0.0000,72.257,54.802,42.565,49.17429142,-121.67782046,0.00000000,
6.4620,-0.4339,-0.9094,0.4724,0.4317,0.4112,0.4029,0.5486,0.1896,-0.1108,849.1006,1.9800,40.9800,-28.0200,0.0000,72.065,54.802,42.565,49.17429142,-121.67782046,0.00000000,
6.4700,-0.4339,-0.9094,0.4724,0.4317,0.4112,0.4029,-0.2290,0.5603,-0.0629,849.1006,1.9800,40.9800,-28.0200,0.0000,72.065,54.802,42.565,49.17429142,-121.67782046,0.00000000,
6.4830,-0.4339,-0.9094,0.4724,-1.6056,-0.7937,-0.1933,-0.2290,0.5603,-0.0629,849.1006,1.9800,40.9800,-28.0200,0.0000,72.065,54.802,42.565,49.17429142,-121.67782046,0.00000000,
6.5050,-0.1451,-1.0432,0.6278,-1.6056,-0.7937,-0.1933,-0.2290,0.5603,-0.0629,849.1006,1.9800,40.9800,-28.0200,0.0000,115.306,58.299,13.015,49.17429142,-121.67782046,0.00000000,
6.5060,-0.1451,-1.0432,0.6278,-1.6056,-0.7937,-0.1933,-0.2290,0.5603,-0.0629,849.1006,1.9800,40.9800,-27.9000,0.0000,114.366,58.299,13.015,49.17429142,-121.67782046,0.00000000,
6.5080,-0.1451,-1.0432,0.6278,-1.6056,-0.7937,-0.1933,0.2312,0.2088,-0.0969,849.1006,1.9800,40.9800,-27.9000,0.0000,114.366,58.299,13.015,49.17429142,-121.67782046,0.00000000,
6.5240,-0.1451,-1.0432,0.6278,-1.6056,-0.7937,-0.1933,0.2312,0.2088,-0.0969,849.0918,1.9800,40.9800,-27.9000,0.0000,114.366,58.299,13.015,49.17429142,-121.67782046,0.00000000,
6.5250,-0.1451,-1.0432,0.6278,-1.6056,-0.7937,-0.1933,0.2312,0.2088,-0.0969,849.0918,1.9800,40.9800,-27.9000,0.0000,114.366,58.299,13.015,49.17429142,-121.67782046,0.00000000,
6.5430,-0.1451,-1.0432,0.6278,1.1236,-2.1225,1.2476,0.2312,0.2088,-0.0969,849.0918,1.9800,40.9800,-27.9000,0.0000,114.366,58.299,13.015,49.17429142,-121.67782046,0.00000000,
6.5630,-0.2814,-0.9260,0.3923,1.1236,-2.1225,1.2476,0.2312,0.2088,-0.0969,849.0918,1.9800,40.9800,-27.9000,0.0000,98.455,62.462,35.656,49.17429142,-121.67782046,0.00000000,
6.5650,-0.2814,-0.9260,0.3923,1.1236,-2.1225,1.2476,0.2312,0.2088,-0.0969,849.0918,2.0400,41.0400,-27.7800,0.0000,98.202,62.462,35.656,49.17429142,-121.67782046,0.00000000,
6.5670,-0.2814,-0.9260,0.3923,1.1236,-2.1225,1.2476,0.4932,0.2610,-0.1886,849.0918,2.0400,41.0400,-27.7800,0.0000,98.202,62.462,35.656,49.17429142,-121.67782046,0.00000000,
6.6040,-0.2814,-0.9260,0.3923,-0.2391,-1.0322,-1.1699,0.4932,0.2610,-0.1886,849.0918,2.0400,41.0400,-27.7800,0.0000,98.202,62.462,35.656,49.17429142,-121.67782046,0.00000000,
6.6310,-0.1422,-0.7774,0.6024,-0.2391,-1.0322,-1.1699,0.4932,0.2610,-0.1886,849.0918,2.0400,41.0400,-27.7800,0.0000,47.397,51.475,13.281,49.17429142,-121.67782046,0.00000000,
6.6340,-0.1422,-0.7774,0.6024,-0.2391,-1.0322,-1.1699,0.4932,0.2610,-0.1886,849.0918,2.1000,41.0400,-27.7200,0.0000,46.678,51.475,13.281,49.17429142,-121.67782046,0.00000000,
6.6370,-0.1422,-0.7774,0.6024,-0.2391,-1.0322,-1.1699,0.7553,0.2695,-0.2407,849.0918,2.1000,41.0400,-27.7200,0.0000,46.678,51.475,13.281,49.17429142,-121.67782046,0.00000000,
6.6640,-0.1422,-0.7774,0.6024,1.0815,0.2020,0.5297,0.7553,0.2695,-0.2407,849.0918,2.1000,41.0400,-27.7200,0.0000,46.678,51.475,13.281,49.17429142,-121.67782046,0.00000000,
6.6850,-0.1739,-0.7999,0.5403,1.0815,0.2020,0.5297,0.7553,0.2695,-0.2407,849.0918,2.1000,41.0400,-27.7200,0.0000,75.273,54.639,17.844,49.17429142,-121.67782046,0.00000000,
6.6950,-0.1739,-0.7999,0.5403,1.0815,0.2020,0.5297,0.7553,0.2695,-0.2407,849.0918,2.1000,41.1000,-27.6600,0.0000,74.562,54.639,17.844,49.17429142,-121.67782046,0.00000000,
6.7000,-0.1739,-0.7999,0.5403,1.0815,0.2020,0.5297,0.4581,0.3675,-0.1641,849.0918,2.1000,41.1000,-27.6600,0.0000,74.562,54.639,17.844,49.17429142,-121.67782046,0.00000000,
6.7020,-0.1739,-0.7999,0.5403,1.0815,0.2020,0.5297,0.4581,0.3675,-0.1641,849.0688,2.1000,41.1000,-27.6600,0.0000,74.562,54.639,17.844,49.17429142,-121.67782046,0.00000000,
6.7050,-0.1739,-0.7999,0.5403,1.0815,0.2020,0.5297,0.4581,0.3675,-0.1641,849.0688,2.1000,41.1000,-27.6600,0.0000,74.562,54.639,17.844,49.17429142,-121.67782046,0.00000000,
6.7220,-0.1739,-0.7999,0.5403,0.7686,-0.0895,-0.1814,0.4581,0.3675,-0.1641,849.0688,2.1000,41.1000,-27.6600,0.0000,74.562,54.639,17.844,49.17431367,-121.67784673,0.00000000,
6.7530,-0.4060,-0.7061,0.3610,0.7686,-0.0895,-0.1814,0.4581,0.3675,-0.1641,849.0688,2.1000,41.1000,-27.6600,0.0000,64.354,52.423,48.358,49.17431367,-121.67784673,0.00000000,
6.7580,-0.4060,-0.7061,0.3610,0.7686,-0.0895,-0.1814,0.4581,0.3675,-0.1641,849.0688,2.1600,41.1000,-27.5400,0.0000,64.136,52.423,48.358,49.17431367,-121.67784673,0.00000000,
6.7620,-0.4060,-0.7061,0.3610,0.7686,-0.0895,-0.1814,0.1832,0.6583,0.0458,849.0688,2.1600,41.1000,-27.5400,0.0000,64.136,52.423,48.358,49.17431367,-121.67784673,0.00000000,
6.7830,-0.4060,-0.7061,0.3610,-1.1456,0.7766,-1.8383,0.1832,0.6583,0.0458,849.0688,2.1600,41.1000,-27.5400,0.0000,64.136,52.423,48.358,49.17431367,-121.67784673,0.00000000,
6.8080,-0.3655,-0.7437,0.2731,-1.1456,0.7766,-1.8383,0.1832,0.6583,0.0458,849.0688,2.1600,41.1000,-27.5400,0.0000,73.975,58.474,53.234,49.17431367,-121.67784673,0.00000000,
6.8280,-0.3655,-0.7437,0.2731,-1.1456,0.7766,-1.8383,0.1832,0.6583,0.0458,849.0688,2.1600,41.1600,-27.4800,0.0000,73.782,58.474,53.234,49.17431367,-121.67784673,0.00000000,
6.8300,-0.3655,-0.7437,0.2731,-1.1456,0.7766,-1.8383,0.1012,-0.2045,-0.1747,849.0688,2.1600,41.1600,-27.4800,0.0000,73.782,58.474,53.234,49.17431367,-121.67784673,0.00000000,
6.8420,-0.3655,-0.7437,0.2731,-0.8459,0.4417,-2.7025,0.1012,-0.2045,-0.1747,849.0688,2.1600,41.1600,-27.4800,0.0000,73.782,58.474,53.234,49.17431367,-121.67784673,0.00000000,
6.8630,-0.0391,-0.9856,0.7553,-0.8459,0.4417,-2.7025,0.1012,-0.2045,-0.1747,849.0688,2.1600,41.1600,-27.4800,0.0000,-12.975,52.497,2.962,49.17431367,-121.67784673,0.00000000,
6.8670,-0.0391,-0.9856,0.7553,-0.8459,0.4417,-2.7025,0.1012,-0.2045,-0.1747,849.0688,2.2200,41.1600,-27.4800,0.0000,-14.001,52.497,2.962,49.17431367,-121.67784673,0.00000000,
6.8690,-0.0391,-0.9856,0.7553,-0.8459,0.4417,-2.7025,-0.7372,-0.1896,-0.2439,849.0688,2.2200,41.1600,-27.4800,0.0000,-14.001,52.497,2.962,49.17431367,-121.67784673,0.00000000,
6.8810,-0.0391,-0.9856,0.7553,-0.8459,0.4417,-2.7025,-0.7372,-0.1896,-0.2439,849.0637,2.2200,41.1600,-27.4800,0.0000,-14.001,52.497,2.962,49.17431367,-121.67784673,0.00000000,
6.8830,-0.0391,-0.9856,0.7553,-0.8459,0.4417,-2.7025,-0.7372,-0.1896,-0.2439,849.0637,2.2200,41.1600,-27.4800,0.0000,-14.001,52.497,2.962,49.17431367,-121.67784673,0.00000000,
6.9040,-0.0391,-0.9856,0.7553,2.1545,-1.5872,2.4444,-0.7372,-0.1896,-0.2439,849.0637,2.2200,41.1600,-27.4800,0.0000,-14.001,52.497,2.962,49.17431367,-121.67784673,0.00000000,
6.9290,-0.2692,-0.6050,0.4123,2.1545,-1.5872,2.4444,-0.7372,-0.1896,-0.2439,849.0637,2.2200,41.1600,-27.4800,0.0000,61.333,50.854,33.142,49.17431367,-121.67784673,0.00000000,
6.9330,-0.2692,-0.6050,0.4123,2.1545,-1.5872,2.4444,-0.7372,-0.1896,-0.2439,849.0637,2.2800,41.2200,-27.4200,0.0000,61.007,50.854,33.142,49.17431367,-121.67784673,0.00000000,
6.9360,-0.2692,-0.6050,0.4123,2.1545,-1.5872,2.4444,-1.5926,0.8469,0.3963,849.0637,2.2800,41.2200,-27.4200,0.0000,61.007,50.854,33.142,49.17431367,-121.67784673,0.00000000,
6.9720,-0.2692,-0.6050,0.4123,0.3050,2.4277,-0.1637,-1.5926,0.8469,0.3963,849.0637,2.2800,41.2200,-27.4200,0.0000,61.007,50.854,33.142,49.17431367,-121.67784673,0.00000000,
6.9840,-0.7901,0.4534,-0.0719,0.3050,2.4277,-0.1637,-1.5926,0.8469,0.3963,849.0637,2.2800,41.2200,-27.4200,0.0000,37.635,-29.746,95.199,49.17431367,-121.67784673,0.00000000,
6.9860,-0.7901,0.4534,-0.0719,0.3050,2.4277,-0.1637,-1.5926,0.8469,0.3963,849.0637,2.2800,41.2200,-27.4200,0.0000,37.635,-29.746,95.199,49.17431367,-121.67784673,0.00000000,
6.9870,-0.7901,0.4534,-0.0719,0.3050,2.4277,-0.1637,-0.9215,0.0682,-0.1672,849.0637,2.2800,41.2200,-27.4200,0.0000,37.635,-29.746,95.199,49.17431367,-121.67784673,0.00000000,
7.0200,-0.7901,0.4534,-0.0719,-5.0732,13.1214,-4.4099,-0.9215,0.0682,-0.1672,849.0637,2.2800,41.2200,-27.4200,0.0000,37.635,-29.746,95.199,49.17431367,-121.67784673,0.00000000,
7.0430,-0.7290,0.0420,-0.0167,-5.0732,13.1214,-4.4099,-0.9215,0.0682,-0.1672,849.0637,2.2800,41.2200,-27.4200,0.0000,33.658,-3.293,91.310,49.17431367,-121.67784673,0.00000000,
7.0440,-0.7290,0.0420,-0.0167,-5.0732,13.1214,-4.4099,-0.9215,0.0682,-0.1672,849.0637,2.3400,41.2200,-27.4200,0.0000,33.657,-3.293,91.310,49.17431367,-121.67784673,0.00000000,
7.0460,-0.7290,0.0420,-0.0167,-5.0732,13.1214,-4.4099,-0.3558,-0.0064,0.0831,849.0637,2.3400,41.2200,-27.4200,0.0000,33.657,-3.293,91.310,49.17431367,-121.67784673,0.00000000,
7.0590,-0.7290,0.0420,-0.0167,-5.0732,13.1214,-4.4099,-0.3558,-0.0064,0.0831,849.0894,2.3400,41.2200,-27.4200,0.0000,33.657,-3.293,91.310,49.17431367,-121.67784673,0.00000000,
7.0610,-0.7290,0.0420,-0.0167,-5.0732,13.1214,-4.4099,-0.3558,-0.0064,0.0831,849.0894,2.3400,41.2200,-27.4200,0.0000,33.657,-3.293,91.310,49.17431367,-121.67784673,0.00000000,
7.0800,-0.7290,0.0420,-0.0167,-4.5176,9.1407,-3.7782,-0.3558,-0.0064,0.0831,849.0894,2.3400,41.2200,-27.4200,0.0000,33.657,-3.293,91.310,49.17431367,-121.67784673,0.00000000,
7.1010,-0.1705,-0.9392,0.6801,-4.5176,9.1407,-3.7782,-0.3558,-0.0064,0.0831,849.0894,2.3400,41.2200,-27.4200,0.0000,56.694,53.257,14.076,49.17431367,-121.67784673,0.00000000,
7.1020,-0.1705,-0.9392,0.6801,-4.5176,9.1407,-3.7782,-0.3558,-0.0064,0.0831,849.0894,2.3400,41.4000,-27.1800,0.0000,53.734,53.257,14.076,49.17431367,-121.67784673,0.00000000,
7.1030,-0.1705,-0.9392,0.6801,-4.5176,9.1407,-3.7782,0.2280,0.5859,-0.0522,849.0894,2.3400,41.4000,-27.1800,0.0000,53.734,53.257,14.076,49.17431367,-121.67784673,0.00000000,
7.1400,-0.1705,-0.9392,0.6801,0.9274,-0.5578,2.8357,0.2280,0.5859,-0.0522,849.0894,2.3400,41.4000,-27.1800,0.0000,53.734,53.257,14.076,49.17431367,-121.67784673,0.00000000,
7.1710,-0.7031,-0.5463,0.2208,0.9274,-0.5578,2.8357,0.2280,0.5859,-0.0522,849.0894,2.3400,41.4000,-27.1800,0.0000,42.976,36.550,72.567,49.17431367,-121.67784673,0.00000000,
7.1730,-0.7031,-0.5463,0.2208,0.9274,-0.5578,2.8357,0.2280,0.5859,-0.0522,849.0894,2.4000,41.5800,-26.9400,0.0000,42.534,36.550,72.567,49.17431367,-121.67784673,0.00000000,
7.1750,-0.7031,-0.5463,0.2208,0.9274,-0.5578,2.8357,0.3515,0.5028,-0.1257,849.0894,2.4000,41.5800,-26.9400,0.0000,42.534,36.550,72.567,49.17431367,-121.67784673,0.00000000,
7.2080,-0.7031,-0.5463,0.2208,-3.9003,3.1454,-1.7077,0.3515,0.5028,-0.1257,849.0894,2.4000,41.5800,-26.9400,0.0000,42.534,36.550,72.567,49.17431367,-121.67784673,0.00000000,
7.2220,-0.0684,-0.7129,0.4871,-3.9003,3.1454,-1.7077,0.3515,0.5028,-0.1257,849.0894,2.4000,41.5800,-26.9400,0.0000,44.830,55.398,7.994,49.17431367,-121.67784673,0.00000000,
7.2240,-0.0684,-0.7129,0.4871,-3.9003,3.1454,-1.7077,0.3515,0.5028,-0.1257,849.0894,2.4000,41.8200,-26.7000,0.0000,38.012,55.398,7.994,49.17431367,-121.67784673,0.00000000,
7.2270,-0.0684,-0.7129,0.4871,-3.9003,3.1454,-1.7077,-0.2162,0.4304,-0.1268,849.0894,2.4000,41.8200,-26.7000,0.0000,38.012,55.398,7.994,49.17431367,-121.67784673,0.00000000,
7.2390,-0.0684,-0.7129,0.4871,-3.9003,3.1454,-1.7077,-0.2162,0.4304,-0.1268,848.9075,2.4000,41.8200,-26.7000,0.0000,38.012,55.398,7.994,49.17431367,-121.67784673,0.00000000,
7.2410,-0.0684,-0.7129,0.4871,-3.9003,3.1454,-1.7077,-0.2162,0.4304,-0.1268,848.9075,2.4000,41.8200,-26.7000,0.0000,38.012,55.398,7.994,49.17431367,-121.67784673,0.00000000,
7.2610,-0.0684,-0.7129,0.4871,2.2100,1.5792,0.9661,-0.2162,0.4304,-0.1268,848.9075,2.4000,41.8200,-26.7000,0.0000,38.012,55.398,7.994,49.17431367,-121.67784673,0.00000000,
7.2910,-0.6885,-0.8893,0.1407,2.2100,1.5792,0.9661,-0.2162,0.4304,-0.1268,848.9075,2.4000,41.8200,-26.7000,0.0000,52.243,51.687,78.453,49.17431367,-121.67784673,0.00000000,
7.2970,-0.6885,-0.8893,0.1407,2.2100,1.5792,0.9661,-0.2162,0.4304,-0.1268,848.9075,2.4600,42.0600,-26.5200,0.0000,51.856,51.687,78.453,49.17431367,-121.67784673,0.00000000,
7.3040,-0.6885,-0.8893,0.1407,2.2100,1.5792,0.9661,-0.9374,0.0213,0.2791,848.9075,2.4600,42.0600,-26.5200,0.0000,51.856,51.687,78.453,49.17431367,-121.67784673,0.00000000,
7.3250,-0.6885,-0.8893,0.1407,-3.4723,-0.0304,-1.7865,-0.9374,0.0213,0.2791,848.9075,2.4600,42.0600,-26.5200,0.0000,51.856,51.687,78.453,49.17431367,-121.67784673,0.00000000,
7.3490,-0.3591,-1.3262,0.2789,-3.4723,-0.0304,-1.7865,-0.9374,0.0213,0.2791,848.9075,2.4600,42.0600,-26.5200,0.0000,100.447,71.073,52.163,49.17431367,-121.67784673,0.00000000,
7.3530,-0.3591,-1.3262,0.2789,-3.4723,-0.0304,-1.7865,-0.9374,0.0213,0.2791,848.9075,2.4600,42.4200,-26.1600,0.0000,99.654,71.073,52.163,49.17431367,-121.67784673,0.00000000,
7.3580,-0.3591,-1.3262,0.2789,-3.4723,-0.0304,-1.7865,-0.3100,-0.1651,-0.0202,848.9075,2.4600,42.4200,-26.1600,0.0000,99.654,71.073,52.163,49.17431367,-121.67784673,0.00000000,
7.3840,-0.3591,-1.3262,0.2789,-0.3665,-4.1844,-0.1954,-0.3100,-0.1651,-0.0202,848.9075,2.4600,42.4200,-26.1600,0.0000,99.654,71.073,52.163,49.17431367,-121.67784673,0.00000000,
7.4090,-0.1950,-0.9514,0.2491,-0.3665,-4.1844,-0.1954,-0.3100,-0.1651,-0.0202,848.9075,2.4600,42.4200,-26.1600,0.0000,118.193,71.608,38.045,49.17431367,-121.67784673,0.00000000,
7.4150,-0.1950,-0.9514,0.2491,-0.3665,-4.1844,-0.1954,-0.3100,-0.1651,-0.0202,848.9075,2.5200,42.7800,-25.7400,0.0000,117.456,71.608,38.045,49.17431367,-121.67784673,0.00000000,
7.4220,-0.1950,-0.9514,0.2491,-0.3665,-4.1844,-0.1954,0.4016,-0.0905,-0.1374,848.9075,2.5200,42.7800,-25.7400,0.0000,117.456,71.608,38.045,49.17431367,-121.67784673,0.00000000,
7.4280,-0.1950,-0.9514,0.2491,-0.3665,-4.1844,-0.1954,0.4016,-0.0905,-0.1374,848.9290,2.5200,42.7800,-25.7400,0.0000,117.456,71.608,38.045,49.17431367,-121.67784673,0.00000000,
7.4330,-0.1950,-0.9514,0.2491,-0.3665,-4.1844,-0.1954,0.4016,-0.0905,-0.1374,848.9290,2.5200,42.7800,-25.7400,0.0000,117.456,71.608,38.045,49.17431367,-121.67784673,0.00000000,
7.4420,-0.1950,-0.9514,0.2491,1.0614,-0.5103,-0.6670,0.4016,-0.0905,-0.1374,848.9290,2.5200,42.7800,-25.7400,0.0000,117.456,71.608,38.045,49.17431367,-121.67784673,0.00000000,
7.4620,-0.1197,-1.1248,0.4524,1.0614,-0.5103,-0.6670,0.4016,-0.0905,-0.1374,848.9290,2.5200,42.7800,-25.7400,0.0000,149.835,67.411,14.822,49.17431367,-121.67784673,0.00000000,
7.4630,-0.1197,-1.1248,0.4524,1.0614,-0.5103,-0.6670,0.4016,-0.0905,-0.1374,848.9290,2.5200,43.1400,-25.1400,0.0000,148.282,67.411,14.822,49.17431367,-121.67784673,0.00000000,
7.4650,-0.1197,-1.1248,0.4524,1.0614,-0.5103,-0.6670,0.9854,0.4740,-0.0341,848.9290,2.5200,43.1400,-25.1400,0.0000,148.282,67.411,14.822,49.17431367,-121.67784673,0.00000000,
7.5020,-0.1197,-1.1248,0.4524,1.6878,-2.3431,0.8788,0.9854,0.4740,-0.0341,848.9290,2.5200,43.1400,-25.1400,0.0000,148.282,67.411,14.822,49.17431367,-121.67784673,0.00000000,
7.5250,-0.0708,-0.5375,0.6610,1.6878,-2.3431,0.8788,0.9854,0.4740,-0.0341,848.9290,2.5200,43.1400,-25.1400,0.0000,0.563,38.957,6.118,49.17431367,-121.67784673,0.00000000,
7.5300,-0.0708,-0.5375,0.6610,1.6878,-2.3431,0.8788,0.9854,0.4740,-0.0341,848.9290,2.5200,43.5000,-24.6000,0.0000,0.363,38.957,6.118,49.17431367,-121.67784673,0.00000000,
7.5330,-0.0708,-0.5375,0.6610,1.6878,-2.3431,0.8788,1.8919,1.3092,-0.4005,848.9290,2.5200,43.5000,-24.6000,0.0000,0.363,38.957,6.118,49.17431367,-121.67784673,0.00000000,
7.5620,-0.0708,-0.5375,0.6610,2.2340,3.0213,2.1324,1.8919,1.3092,-0.4005,848.9290,2.5200,43.5000,-24.6000,0.0000,0.363,38.957,6.118,49.17431367,-121.67784673,0.00000000,
7.5850,-0.1329,-0.4374,0.3376,2.2340,3.0213,2.1324,1.8919,1.3092,-0.4005,848.9290,2.5200,43.5000,-24.6000,0.0000,35.222,50.325,21.490,49.17431367,-121.67784673,0.00000000,
7.5900,-0.1329,-0.4374,0.3376,2.2340,3.0213,2.1324,1.8919,1.3092,-0.4005,848.9290,2.5800,43.8000,-24.0600,0.0000,32.661,50.325,21.490,49.17431367,-121.67784673,0.00000000,
7.5930,-0.1329,-0.4374,0.3376,2.2340,3.0213,2.1324,1.1601,1.0876,-0.4645,848.9290,2.5800,43.8000,-24.0600,0.0000,32.661,50.325,21.490,49.17431367,-121.67784673,0.00000000,
7.6010,-0.1329,-0.4374,0.3376,2.2340,3.0213,2.1324,1.1601,1.0876,-0.4645,849.1221,2.5800,43.8000,-24.0600,0.0000,32.661,50.325,21.490,49.17431367,-121.67784673,0.00000000,
7.6040,-0.1329,-0.4374,0.3376,2.2340,3.0213,2.1324,1.1601,1.0876,-0.4645,849.1221,2.5800,43.8000,-24.0600,0.0000,32.661,50.325,21.490,49.17431367,-121.67784673,0.00000000,
7.6230,-0.1329,-0.4374,0.3376,1.6566,3.7558,-1.4605,1.1601,1.0876,-0.4645,849.1221,2.5800,43.8000,-24.0600,0.0000,32.661,50.325,21.490,49.17431367,-121.67784673,0.00000000,
7.6460,-0.0508,-0.8341,0.5530,1.6566,3.7558,-1.4605,1.1601,1.0876,-0.4645,849.1221,2.5800,43.8000,-24.0600,0.0000,-5.082,56.343,5.250,49.17431367,-121.67784673,0.00000000,
7.6520,-0.0508,-0.8341,0.5530,1.6566,3.7558,-1.4605,1.1601,1.0876,-0.4645,849.1221,2.5800,44.1000,-23.5800,0.0000,-5.006,56.343,5.250,49.17431367,-121.67784673,0.00000000,
7.6550,-0.0508,-0.8341,0.5530,1.6566,3.7558,-1.4605,0.5816,0.5699,0.1619,849.1221,2.5800,44.1000,-23.5800,0.0000,-5.006,56.343,5.250,49.17431367,-121.67784673,0.00000000,
7.6830,-0.0508,-0.8341,0.5530,2.5087,-0.2845,0.4320,0.5816,0.5699,0.1619,849.1221,2.5800,44.1000,-23.5800,0.0000,-5.006,56.343,5.250,49.17431367,-121.67784673,0.00000000,
7.7090,-0.2340,-1.0911,0.5829,2.5087,-0.2845,0.4320,0.5816,0.5699,0.1619,849.1221,2.5800,44.1000,-23.5800,0.0000,70.983,60.074,21.878,49.17436401,-121.67768891,0.00000000,
7.7120,-0.2340,-1.0911,0.5829,2.5087,-0.2845,0.4320,0.5816,0.5699,0.1619,849.1221,2.6400,44.4600,-23.0400,0.0000,65.488,60.074,21.878,49.17436401,-121.67768891,0.00000000,
7.7150,-0.2340,-1.0911,0.5829,2.5087,-0.2845,0.4320,0.3792,2.2189,-0.5657,849.1221,2.6400,44.4600,-23.0400,0.0000,65.488,60.074,21.878,49.17436401,-121.67768891,0.00000000,
7.7400,-0.2340,-1.0911,0.5829,1.0517,-2.7849,0.9750,0.3792,2.2189,-0.5657,849.1221,2.6400,44.4600,-23.0400,0.0000,65.488,60.074,21.878,49.17436401,-121.67768891,0.00000000,
7.7650,-0.2570,-0.8683,0.5086,1.0517,-2.7849,0.9750,0.3792,2.2189,-0.5657,849.1221,2.6400,44.4600,-23.0400,0.0000,52.322,56.725,26.809,49.17436401,-121.67768891,0.00000000,
7.7700,-0.2570,-0.8683,0.5086,1.0517,-2.7849,0.9750,0.3792,2.2189,-0.5657,849.1221,2.7000,44.7600,-22.5600,0.0000,49.188,56.725,26.809,49.17436401,-121.67768891,0.00000000,
7.7720,-0.2570,-0.8683,0.5086,1.0517,-2.7849,0.9750,0.7915,2.2807,-0.7851,849.1221,2.7000,44.7600,-22.5600,0.0000,49.188,56.725,26.809,49.17436401,-121.67768891,0.00000000,
7.7810,-0.2570,-0.8683,0.5086,1.0517,-2.7849,0.9750,0.7915,2.2807,-0.7851,849.0247,2.7000,44.7600,-22.5600,0.0000,49.188,56.725,26.809,49.17436401,-121.67768891,0.00000000,
7.7840,-0.2570,-0.8683,0.5086,1.0517,-2.7849,0.9750,0.7915,2.2807,-0.7851,849.0247,2.7000,44.7600,-22.5600,0.0000,49.188,56.725,26.809,49.17436401,-121.67768891,0.00000000,
7.8010,-0.2570,-0.8683,0.5086,1.0679,-0.6478,0.3474,0.7915,2.2807,-0.7851,849.0247,2.7000,44.7600,-22.5600,0.0000,49.188,56.725,26.809,49.17436401,-121.67768891,0.00000000,
7.8240,-0.2160,-0.5830,0.3170,1.0679,-0.6478,0.3474,0.7915,2.2807,-0.7851,849.0247,2.7000,44.7600,-22.5600,0.0000,53.457,56.654,34.262,49.17436401,-121.67768891,0.00000000,
7.8290,-0.2160,-0.5830,0.3170,1.0679,-0.6478,0.3474,0.7915,2.2807,-0.7851,849.0247,2.8200,45.0600,-22.0200,0.0000,50.695,56.654,34.262,49.17436401,-121.67768891,0.00000000,
7.8330,-0.2160,-0.5830,0.3170,1.0679,-0.6478,0.3474,0.9886,2.5715,-0.7542,849.0247,2.8200,45.0600,-22.0200,0.0000,50.695,56.654,34.262,49.17436401,-121.67768891,0.00000000,
7.8620,-0.2160,-0.5830,0.3170,1.8046,2.0581,-1.4099,0.9886,2.5715,-0.7542,849.0247,2.8200,45.0600,-22.0200,0.0000,50.695,56.654,34.262,49.17436401,-121.67768891,0.00000000,
7.8840,-0.2834,-0.6240,0.1754,1.8046,2.0581,-1.4099,0.9886,2.5715,-0.7542,849.0247,2.8200,45.0600,-22.0200,0.0000,62.720,61.896,58.253,49.17436401,-121.67768891,0.00000000,
7.8890,-0.2834,-0.6240,0.1754,1.8046,2.0581,-1.4099,0.9886,2.5715,-0.7542,849.0247,2.9400,45.3000,-21.4800,0.0000,61.269,61.896,58.253,49.17436401,-121.67768891,0.00000000,
7.8920,-0.2834,-0.6240,0.1754,1.8046,2.0581,-1.4099,0.6583,3.0605,-0.8288,849.0247,2.9400,45.3000,-21.4800,0.0000,61.269,61.896,58.253,49.17436401,-121.67768891,0.00000000,
7.9220,-0.2834,-0.6240,0.1754,1.5310,1.7081,-2.3316,0.6583,3.0605,-0.8288,849.0247,2.9400,45.3000,-21.4800,0.0000,61.269,61.896,58.253,49.17436401,-121.67768891,0.00000000,
7.9490,-0.5536,-0.9059,0.0537,1.5310,1.7081,-2.3316,0.6583,3.0605,-0.8288,849.0247,2.9400,45.3000,-21.4800,0.0000,47.339,58.453,84.461,49.17436401,-121.67768891,0.00000000,
7.9520,-0.5536,-0.9059,0.0537,1.5310,1.7081,-2.3316,0.6583,3.0605,-0.8288,849.0247,3.0600,45.6000,-20.8800,0.0000,46.348,58.453,84.461,49.17436401,-121.67768891,0.00000000,
7.9560,-0.5536,-0.9059,0.0537,1.5310,1.7081,-2.3316,0.2141,3.3215,-0.9076,849.0247,3.0600,45.6000,-20.8800,0.0000,46.348,58.453,84.461,49.17436401,-121.67768891,0.00000000,
7.9600,-0.5536,-0.9059,0.0537,1.5310,1.7081,-2.3316,0.2141,3.3215,-0.9076,848.8611,3.0600,45.6000,-20.8800,0.0000,46.348,58.453,84.461,49.17436401,-121.67768891,0.00000000,
7.9620,-0.5536,-0.9059,0.0537,1.5310,1.7081,-2.3316,0.2141,3.3215,-0.9076,848.8611,3.0600,45.6000,-20.8800,0.0000,46.348,58.453,84.461,49.17436401,-121.67768891,0.00000000,
7.9800,-0.5536,-0.9059,0.0537,-0.8171,-0.8402,-2.6869,0.2141,3.3215,-0.9076,848.8611,3.0600,45.6000,-20.8800,0.0000,46.348,58.453,84.461,49.17436401,-121.67768891,0.00000000,
8.0010,-0.7334,-0.8571,0.0024,-0.8171,-0.8402,-2.6869,0.2141,3.3215,-0.9076,848.8611,3.0600,45.6000,-20.8800,0.0000,37.426,49.446,89.814,49.17436401,-121.67768891,0.00000000,
8.0030,-0.7334,-0.8571,0.0024,-0.8171,-0.8402,-2.6869,0.2141,3.3215,-0.9076,848.8611,3.0600,45.9000,-19.9800,0.0000,36.018,49.446,89.814,49.17436401,-121.67768891,0.00000000,
8.0040,-0.7334,-0.8571,0.0024,-0.8171,-0.8402,-2.6869,0.4186,3.1521,-1.1516,848.8611,3.0600,45.9000,-19.9800,0.0000,36.018,49.446,89.814,49.17436401,-121.67768891,0.00000000,
8.0400,-0.7334,-0.8571,0.0024,-2.5583,-0.1141,-2.4454,0.4186,3.1521,-1.1516,848.8611,3.0600,45.9000,-19.9800,0.0000,36.018,49.446,89.814,49.17436401,-121.67768891,0.00000000,
8.0600,-1.0017,-0.7853,-0.4271,-2.5583,-0.1141,-2.4454,0.4186,3.1521,-1.1516,848.8611,3.0600,45.9000,-19.9800,0.0000,25.987,35.797,113.094,49.17436401,-121.67768891,0.00000000,
8.0630,-1.0017,-0.7853,-0.4271,-2.5583,-0.1141,-2.4454,0.4186,3.1521,-1.1516,848.8611,3.0000,46.1400,-18.9600,0.0000,24.872,35.797,113.094,49.17436401,-121.67768891,0.00000000,
8.0650,-1.0017,-0.7853,-0.4271,-2.5583,-0.1141,-2.4454,0.5752,1.2048,-0.9513,848.8611,3.0000,46.1400,-18.9600,0.0000,24.872,35.797,113.094,49.17436401,-121.67768891,0.00000000,
8.1000,-1.0017,-0.7853,-0.4271,-5.0824,0.7032,-5.9805,0.5752,1.2048,-0.9513,848.8611,3.0000,46.1400,-18.9600,0.0000,24.872,35.797,113.094,49.17436401,-121.67768891,0.00000000,
8.1220,-0.9157,-1.1742,-0.1833,-5.0824,0.7032,-5.9805,0.5752,1.2048,-0.9513,848.8611,3.0000,46.1400,-18.9600,0.0000,33.182,51.505,101.319,49.17436401,-121.67768891,0.00000000,
8.1240,-0.9157,-1.1742,-0.1833,-5.0824,0.7032,-5.9805,0.5752,1.2048,-0.9513,848.8611,2.8200,46.3800,-17.7600,0.0000,31.403,51.505,101.319,49.17436401,-121.67768891,0.00000000,
8.1280,-0.9157,-1.1742,-0.1833,-5.0824,0.7032,-5.9805,0.2525,-0.3153,-1.3625,848.8611,2.8200,46.3800,-17.7600,0.0000,31.403,51.505,101.319,49.17436401,-121.67768891,0.00000000,
8.1400,-0.9157,-1.1742,-0.1833,-5.0824,0.7032,-5.9805,0.2525,-0.3153,-1.3625,849.0603,2.8200,46.3800,-17.7600,0.0000,31.403,51.505,101.319,49.17436401,-121.67768891,0.00000000,
8.1430,-0.9157,-1.1742,-0.1833,-5.0824,0.7032,-5.9805,0.2525,-0.3153,-1.3625,849.0603,2.8200,46.3800,-17.7600,0.0000,31.403,51.505,101.319,49.17436401,-121.67768891,0.00000000,
8.1610,-0.9157,-1.1742,-0.1833,-4.7307,-2.8323,-3.5039,0.2525,-0.3153,-1.3625,849.0603,2.8200,46.3800,-17.7600,0.0000,31.403,51.505,101.319,49.17436401,-121.67768891,0.00000000,
8.1840,-0.5253,-0.7701,0.0014,-4.7307,-2.8323,-3.5039,0.2525,-0.3153,-1.3625,849.0603,2.8200,46.3800,-17.7600,0.0000,36.760,55.704,89.847,49.17436401,-121.67768891,0.00000000,
8.1910,-0.5253,-0.7701,0.0014,-4.7307,-2.8323,-3.5039,0.2525,-0.3153,-1.3625,849.0603,2.6400,46.6200,-16.5600,0.0000,34.537,55.704,89.847,49.17436401,-121.67768891,0.00000000,
8.1940,-0.5253,-0.7701,0.0014,-4.7307,-2.8323,-3.5039,-0.7798,-0.5071,-0.9619,849.0603,2.6400,46.6200,-16.5600,0.0000,34.537,55.704,89.847,49.17436401,-121.67768891,0.00000000,
8.2210,-0.5253,-0.7701,0.0014,-1.3136,1.3838,-1.2939,-0.7798,-0.5071,-0.9619,849.0603,2.6400,46.6200,-16.5600,0.0000,34.537,55.704,89.847,49.17436401,-121.67768891,0.00000000,
8.2550,-0.2477,-0.8165,0.1216,-1.3136,1.3838,-1.2939,-0.7798,-0.5071,-0.9619,849.0603,2.6400,46.6200,-16.5600,0.0000,67.169,71.326,63.855,49.17436401,-121.67768891,0.00000000,
8.2620,-0.2477,-0.8165,0.1216,-1.3136,1.3838,-1.2939,-0.7798,-0.5071,-0.9619,849.0603,2.3400,46.9200,-15.3000,0.0000,62.384,71.326,63.855,49.17436401,-121.67768891,0.00000000,
8.2720,-0.2477,-0.8165,0.1216,-1.3136,1.3838,-1.2939,-0.6871,-0.2791,-0.8831,849.0603,2.3400,46.9200,-15.3000,0.0000,62.384,71.326,63.855,49.17436401,-121.67768891,0.00000000,
8.2790,-0.2477,-0.8165,0.1216,0.8414,1.1897,0.1937,-0.6871,-0.2791,-0.8831,849.0603,2.3400,46.9200,-15.3000,0.0000,62.384,71.326,63.855,49.17436401,-121.67768891,0.00000000,
8.3000,-0.2560,-0.7237,0.1055,0.8414,1.1897,0.1937,-0.6871,-0.2791,-0.8831,849.0603,2.3400,46.9200,-15.3000,0.0000,54.935,69.062,67.610,49.17436401,-121.67768891,0.00000000,
8.3020,-0.2560,-0.7237,0.1055,0.8414,1.1897,0.1937,-0.6871,-0.2791,-0.8831,849.0603,1.7400,47.2200,-14.1000,0.0000,50.074,69.062,67.610,49.17436401,-121.67768891,0.00000000,
8.3030,-0.2560,-0.7237,0.1055,0.8414,1.1897,0.1937,-0.1257,0.1481,-0.3856,849.0603,1.7400,47.2200,-14.1000,0.0000,50.074,69.062,67.610,49.17436401,-121.67768891,0.00000000,
8.3180,-0.2560,-0.7237,0.1055,0.8414,1.1897,0.1937,-0.1257,0.1481,-0.3856,849.0652,1.7400,47.2200,-14.1000,0.0000,50.074,69.062,67.610,49.17436401,-121.67768891,0.00000000,
8.3200,-0.2560,-0.7237,0.1055,0.8414,1.1897,0.1937,-0.1257,0.1481,-0.3856,849.0652,1.7400,47.2200,-14.1000,0.0000,50.074,69.062,67.610,49.17436401,-121.67768891,0.00000000,
8.3400,-0.2560,-0.7237,0.1055,0.4735,2.2034,0.1037,-0.1257,0.1481,-0.3856,849.0652,1.7400,47.2200,-14.1000,0.0000,50.074,69.062,67.610,49.17436401,-121.67768891,0.00000000,
8.3620,-0.3342,-0.6543,-0.0909,0.4735,2.2034,0.1037,-0.1257,0.1481,-0.3856,849.0652,1.7400,47.2200,-14.1000,0.0000,30.493,62.105,105.222,49.17436401,-121.67768891,0.00000000,
8.3650,-0.3342,-0.6543,-0.0909,0.4735,2.2034,0.1037,-0.1257,0.1481,-0.3856,849.0652,0.9600,47.5200,-13.0200,0.0000,27.675,62.105,105.222,49.17436401,-121.67768891,0.00000000,
8.3700,-0.3342,-0.6543,-0.0909,0.4735,2.2034,0.1037,0.1300,0.4432,-0.1321,849.0652,0.9600,47.5200,-13.0200,0.0000,27.675,62.105,105.222,49.17436401,-121.67768891,0.00000000,
8.4040,-0.3342,-0.6543,-0.0909,-0.2772,2.8875,-1.7259,0.1300,0.4432,-0.1321,849.0652,0.9600,47.5200,-13.0200,0.0000,27.675,62.105,105.222,49.17436401,-121.67768891,0.00000000,
8.4330,-0.2301,-0.5986,-0.0074,-0.2772,2.8875,-1.7259,0.1300,0.4432,-0.1321,849.0652,0.9600,47.5200,-13.0200,0.0000,38.236,68.961,91.839,49.17436401,-121.67768891,0.00000000,
8.4440,-0.2301,-0.5986,-0.0074,-0.2772,2.8875,-1.7259,0.1300,0.4432,-0.1321,849.0652,0.0000,47.9400,-12.0000,0.0000,34.318,68.961,91.839,49.17436401,-121.67768891,0.00000000,
8.4510,-0.2301,-0.5986,-0.0074,-0.2772,2.8875,-1.7259,0.1289,0.7968,-0.0181,849.0652,0.0000,47.9400,-12.0000,0.0000,34.318,68.961,91.839,49.17436401,-121.67768891,0.00000000,
8.4590,-0.2301,-0.5986,-0.0074,0.7766,3.4326,-0.7841,0.1289,0.7968,-0.0181,849.0652,0.0000,47.9400,-12.0000,0.0000,34.318,68.961,91.839,49.17436401,-121.67768891,0.00000000,
8.4800,-0.6108,-1.1395,0.0312,0.7766,3.4326,-0.7841,0.1289,0.7968,-0.0181,849.0652,0.0000,47.9400,-12.0000,0.0000,28.437,61.778,87.075,49.17436401,-121.67768891,0.00000000,
8.4820,-0.6108,-1.1395,0.0312,0.7766,3.4326,-0.7841,0.1289,0.7968,-0.0181,849.0652,-1.0200,48.3600,-10.8600,0.0000,25.087,61.778,87.075,49.17436401,-121.67768891,0.00000000,
8.4830,-0.6108,-1.1395,0.0312,0.7766,3.4326,-0.7841,-0.0714,0.7744,0.0842,849.0652,-1.0200,48.3600,-10.8600,0.0000,25.087,61.778,87.075,49.17436401,-121.67768891,0.00000000,
8.4990,-0.6108,-1.1395,0.0312,0.7766,3.4326,-0.7841,-0.0714,0.7744,0.0842,849.1289,-1.0200,48.3600,-10.8600,0.0000,25.087,61.778,87.075,49.17436401,-121.67768891,0.00000000,
8.5020,-0.6108,-1.1395,0.0312,0.7766,3.4326,-0.7841,-0.0714,0.7744,0.0842,849.1289,-1.0200,48.3600,-10.8600,0.0000,25.087,61.778,87.075,49.17436401,-121.67768891,0.00000000,
8.5200,-0.6108,-1.1395,0.0312,-2.7750,-1.9144,-0.1925,-0.0714,0.7744,0.0842,849.1289,-1.0200,48.3600,-10.8600,0.0000,25.087,61.778,87.075,49.17436401,-121.67768891,0.00000000,
8.5420,-0.3699,-1.8187,0.4446,-2.7750,-1.9144,-0.1925,-0.0714,0.7744,0.0842,849.1289,-1.0200,48.3600,-10.8600,0.0000,46.557,72.360,39.760,49.17436401,-121.67768891,0.00000000,
8.5450,-0.3699,-1.8187,0.4446,-2.7750,-1.9144,-0.1925,-0.0714,0.7744,0.0842,849.1289,-2.0400,48.9000,-9.7800,0.0000,41.324,72.360,39.760,49.17436401,-121.67768891,0.00000000,
8.5500,-0.3699,-1.8187,0.4446,-2.7750,-1.9144,-0.1925,-1.1121,1.9729,-0.0565,849.1289,-2.0400,48.9000,-9.7800,0.0000,41.324,72.360,39.760,49.17436401,-121.67768891,0.00000000,
8.5800,-0.3699,-1.8187,0.4446,-0.5134,-8.5311,4.7434,-1.1121,1.9729,-0.0565,849.1289,-2.0400,48.9000,-9.7800,0.0000,41.324,72.360,39.760,49.17436401,-121.67768891,0.00000000,
8.6030,-0.5956,-1.3056,0.4206,-0.5134,-8.5311,4.7434,-1.1121,1.9729,-0.0565,849.1289,-2.0400,48.9000,-9.7800,0.0000,24.223,60.817,54.770,49.17436401,-121.67768891,0.00000000,
8.6070,-0.5956,-1.3056,0.4206,-0.5134,-8.5311,4.7434,-1.1121,1.9729,-0.0565,849.1289,-3.1800,49.3800,-8.5800,0.0000,21.876,60.817,54.770,49.17436401,-121.67768891,0.00000000,
8.6120,-0.5956,-1.3056,0.4206,-0.5134,-8.5311,4.7434,0.4027,1.6757,-0.2418,849.1289,-3.1800,49.3800,-8.5800,0.0000,21.876,60.817,54.770,49.17436401,-121.67768891,0.00000000,
8.6410,-0.5956,-1.3056,0.4206,-2.8872,-3.4428,4.1455,0.4027,1.6757,-0.2418,849.1289,-3.1800,49.3800,-8.5800,0.0000,21.876,60.817,54.770,49.17436401,-121.67768891,0.00000000,
8.6660,-0.4270,-0.6861,-0.0396,-2.8872,-3.4428,4.1455,0.4027,1.6757,-0.2418,849.1289,-3.1800,49.3800,-8.5800,0.0000,15.607,57.989,95.303,49.17436401,-121.67768891,0.00000000,
8.6750,-0.4270,-0.6861,-0.0396,-2.8872,-3.4428,4.1455,0.4027,1.6757,-0.2418,849.1289,-4.4400,49.8000,-7.3800,0.0000,12.725,57.989,95.303,49.17436401,-121.67768891,0.00000000,
8.6800,-0.4270,-0.6861,-0.0396,-2.8872,-3.4428,4.1455,1.0184,0.9875,0.0224,849.1289,-4.4400,49.8000,-7.3800,0.0000,12.725,57.989,95.303,49.17436401,-121.67768891,0.00000000,
