time,gFx,gFy,gFz,ax,ay,az,wx,wy,wz,p,Bx,By,Bz,Azimuth,Pitch,Roll,Latitude,Longitude,Speed (m/s)
0.012,0.2355,0.5438,0.7504,-0.0649,0.2575,-0.6967,0.2344,-0.1736,0.0458,850.1921,-10.26,-18.78,-29.04,28.016,-34.658,-17.423,49.17440244,-121.6779525,0
0.037,0.2795,0.4837,0.8228,-0.0649,0.2575,-0.6967,0.2344,-0.1736,0.0458,850.1921,-10.26,-18.78,-29.04,165.342,-29.101,-18.762,49.17440244,-121.6779525,0
0.038,0.2795,0.4837,0.8228,-0.0649,0.2575,-0.6967,0.2344,-0.1736,0.0458,850.1921,-10.32,-18.84,-28.98,163.305,-29.101,-18.762,49.17440244,-121.6779525,0
0.039,0.2795,0.4837,0.8228,-0.0649,0.2575,-0.6967,-0.2748,-0.1949,0.1236,850.1921,-10.32,-18.84,-28.98,163.305,-29.101,-18.762,49.17440244,-121.6779525,0
0.054,0.2795,0.4837,0.8228,0.2646,-0.1922,-0.0438,-0.2748,-0.1949,0.1236,850.1921,-10.32,-18.84,-28.98,163.305,-29.101,-18.762,49.17440244,-121.6779525,0
0.099,0.2878,0.4807,0.8887,0.2646,-0.1922,-0.0438,-0.2748,-0.1949,0.1236,850.1921,-10.32,-18.84,-28.98,161.638,-27.231,-17.943,49.17440244,-121.6779525,0
0.101,0.2878,0.4807,0.8887,0.2646,-0.1922,-0.0438,-0.2748,-0.1949,0.1236,850.1921,-10.5,-18.9,-28.92,158.461,-27.231,-17.943,49.17440244,-121.6779525,0
0.103,0.2878,0.4807,0.8887,0.2646,-0.1922,-0.0438,0.3313,-0.3143,-0.0341,850.1921,-10.5,-18.9,-28.92,158.461,-27.231,-17.943,49.17440244,-121.6779525,0
0.116,0.2878,0.4807,0.8887,0.1415,-0.2587,0.6911,0.3313,-0.3143,-0.0341,850.1921,-10.5,-18.9,-28.92,158.461,-27.231,-17.943,49.17440244,-121.6779525,0
0.155,0.3362,0.5242,0.6278,0.1415,-0.2587,0.6911,0.3313,-0.3143,-0.0341,850.1921,-10.5,-18.9,-28.92,-57.209,-36.357,-28.167,49.17440244,-121.6779525,0
0.159,0.3362,0.5242,0.6278,0.1415,-0.2587,0.6911,0.3313,-0.3143,-0.0341,850.1921,-10.62,-18.84,-28.86,-55.926,-36.357,-28.167,49.17440244,-121.6779525,0
0.161,0.3362,0.5242,0.6278,0.1415,-0.2587,0.6911,0.4176,0.066,-0.0501,850.1921,-10.62,-18.84,-28.86,-55.926,-36.357,-28.167,49.17440244,-121.6779525,0
0.163,0.3362,0.5242,0.6278,0.1415,-0.2587,0.6911,0.4176,0.066,-0.0501,849.9285,-10.62,-18.84,-28.86,-55.926,-36.357,-28.167,49.17440244,-121.6779525,0
0.164,0.3362,0.5242,0.6278,0.1415,-0.2587,0.6911,0.4176,0.066,-0.0501,849.9285,-10.62,-18.84,-28.86,-55.926,-36.357,-28.167,49.17440244,-121.6779525,0
0.178,0.3362,0.5242,0.6278,0.6017,-0.143,-1.6602,0.4176,0.066,-0.0501,849.9285,-10.62,-18.84,-28.86,-55.926,-36.357,-28.167,49.17440244,-121.6779525,0
0.214,0.2941,0.4964,0.7739,0.6017,-0.143,-1.6602,0.4176,0.066,-0.0501,849.9285,-10.62,-18.84,-28.86,-136.713,-30.944,-20.811,49.17440244,-121.6779525,0
0.215,0.2941,0.4964,0.7739,0.6017,-0.143,-1.6602,0.4176,0.066,-0.0501,849.9285,-10.8,-18.9,-28.8,-160.851,-30.944,-20.811,49.17440244,-121.6779525,0
0.217,0.2941,0.4964,0.7739,0.6017,-0.143,-1.6602,-0.2876,0.2429,0.0415,849.9285,-10.8,-18.9,-28.8,-160.851,-30.944,-20.811,49.17440244,-121.6779525,0
0.234,0.2941,0.4964,0.7739,0.2325,-0.2708,-0.3389,-0.2876,0.2429,0.0415,849.9285,-10.8,-18.9,-28.8,-160.851,-30.944,-20.811,49.17440244,-121.6779525,0
0.275,0.2565,0.4734,0.7719,0.2325,-0.2708,-0.3389,-0.2876,0.2429,0.0415,849.9285,-10.8,-18.9,-28.8,126.866,-30.198,-18.382,49.17440244,-121.6779525,0
0.281,0.2565,0.4734,0.7719,0.2325,-0.2708,-0.3389,-0.2876,0.2429,0.0415,849.9285,-10.98,-18.9,-28.74,122.825,-30.198,-18.382,49.17440244,-121.6779525,0
0.283,0.2565,0.4734,0.7719,0.2325,-0.2708,-0.3389,-0.3217,0.5965,-0.0202,849.9285,-10.98,-18.9,-28.74,122.825,-30.198,-18.382,49.17440244,-121.6779525,0
0.299,0.2565,0.4734,0.7719,0.1294,-0.3483,-0.5348,-0.3217,0.5965,-0.0202,849.9285,-10.98,-18.9,-28.74,122.825,-30.198,-18.382,49.17440244,-121.6779525,0
0.334,0.1827,0.4382,0.8164,0.1294,-0.3483,-0.5348,-0.3217,0.5965,-0.0202,849.9285,-10.98,-18.9,-28.74,120.521,-27.646,-12.617,49.17437819,-121.6781696,0
0.337,0.1827,0.4382,0.8164,0.1294,-0.3483,-0.5348,-0.3217,0.5965,-0.0202,849.9285,-11.22,-18.9,-28.62,119.39,-27.646,-12.617,49.17437819,-121.6781696,0
0.338,0.1827,0.4382,0.8164,0.1294,-0.3483,-0.5348,-0.9811,0.9673,0.0671,849.9285,-11.22,-18.9,-28.62,119.39,-27.646,-12.617,49.17437819,-121.6781696,0
0.341,0.1827,0.4382,0.8164,0.1294,-0.3483,-0.5348,-0.9811,0.9673,0.0671,850.0012,-11.22,-18.9,-28.62,119.39,-27.646,-12.617,49.17437819,-121.6781696,0
0.342,0.1827,0.4382,0.8164,0.1294,-0.3483,-0.5348,-0.9811,0.9673,0.0671,850.0012,-11.22,-18.9,-28.62,119.39,-27.646,-12.617,49.17437819,-121.6781696,0
0.355,0.1827,0.4382,0.8164,-0.0126,-0.2903,-0.4784,-0.9811,0.9673,0.0671,850.0012,-11.22,-18.9,-28.62,119.39,-27.646,-12.617,49.17437819,-121.6781696,0
0.397,0.2086,0.3982,0.9816,-0.0126,-0.2903,-0.4784,-0.9811,0.9673,0.0671,850.0012,-11.22,-18.9,-28.62,141.791,-21.642,-12,49.17437819,-121.6781696,0
0.399,0.2086,0.3982,0.9816,-0.0126,-0.2903,-0.4784,-0.9811,0.9673,0.0671,850.0012,-11.4,-18.9,-28.56,140.796,-21.642,-12,49.17437819,-121.6781696,0
0.401,0.2086,0.3982,0.9816,-0.0126,-0.2903,-0.4784,-0.7883,0.3856,0.4687,850.0012,-11.4,-18.9,-28.56,140.796,-21.642,-12,49.17437819,-121.6781696,0
0.415,0.2086,0.3982,0.9816,0.3965,-0.1312,0.8337,-0.7883,0.3856,0.4687,850.0012,-11.4,-18.9,-28.56,140.796,-21.642,-12,49.17437819,-121.6781696,0
0.456,0.214,0.3527,0.8159,0.3965,-0.1312,0.8337,-0.7883,0.3856,0.4687,850.0012,-11.4,-18.9,-28.56,146.274,-22.692,-14.697,49.17437819,-121.6781696,0
0.459,0.214,0.3527,0.8159,0.3965,-0.1312,0.8337,-0.7883,0.3856,0.4687,850.0012,-11.52,-18.84,-28.56,145.15,-22.692,-14.697,49.17437819,-121.6781696,0
0.461,0.214,0.3527,0.8159,0.3965,-0.1312,0.8337,-0.1886,1.1633,0.9385,850.0012,-11.52,-18.84,-28.56,145.15,-22.692,-14.697,49.17437819,-121.6781696,0
0.474,0.214,0.3527,0.8159,0.741,-0.3768,-0.9278,-0.1886,1.1633,0.9385,850.0012,-11.52,-18.84,-28.56,145.15,-22.692,-14.697,49.17437819,-121.6781696,0
0.515,0.151,0.3434,0.8482,0.741,-0.3768,-0.9278,-0.1886,1.1633,0.9385,850.0012,-11.52,-18.84,-28.56,135.02,-21.734,-10.093,49.17437819,-121.6781696,0
0.517,0.151,0.3434,0.8482,0.741,-0.3768,-0.9278,-0.1886,1.1633,0.9385,850.0012,-11.64,-18.66,-28.62,133.634,-21.734,-10.093,49.17437819,-121.6781696,0
0.519,0.151,0.3434,0.8482,0.741,-0.3768,-0.9278,-0.7159,0.0703,1.1814,850.0012,-11.64,-18.66,-28.62,133.634,-21.734,-10.093,49.17437819,-121.6781696,0
0.522,0.151,0.3434,0.8482,0.741,-0.3768,-0.9278,-0.7159,0.0703,1.1814,849.9402,-11.64,-18.66,-28.62,133.634,-21.734,-10.093,49.17437819,-121.6781696,0
0.524,0.151,0.3434,0.8482,0.741,-0.3768,-0.9278,-0.7159,0.0703,1.1814,849.9402,-11.64,-18.66,-28.62,133.634,-21.734,-10.093,49.17437819,-121.6781696,0
0.541,0.151,0.3434,0.8482,0.1891,-0.0773,-0.7792,-0.7159,0.0703,1.1814,849.9402,-11.64,-18.66,-28.62,133.634,-21.734,-10.093,49.17437819,-121.6781696,0
0.574,0.2858,0.1797,0.9337,0.1891,-0.0773,-0.7792,-0.7159,0.0703,1.1814,849.9402,-11.64,-18.66,-28.62,167.847,-10.43,-17.022,49.17437819,-121.6781696,0
0.584,0.2858,0.1797,0.9337,0.1891,-0.0773,-0.7792,-0.7159,0.0703,1.1814,849.9402,-11.58,-18.24,-28.74,167.846,-10.43,-17.022,49.17437819,-121.6781696,0
0.587,0.2858,0.1797,0.9337,0.1891,-0.0773,-0.7792,-0.1427,-0.6701,1.3859,849.9402,-11.58,-18.24,-28.74,167.846,-10.43,-17.022,49.17437819,-121.6781696,0
0.597,0.2858,0.1797,0.9337,0.6354,-1.2314,0.0659,-0.1427,-0.6701,1.3859,849.9402,-11.58,-18.24,-28.74,167.846,-10.43,-17.022,49.17437819,-121.6781696,0
0.634,0.2169,0.2545,0.9249,0.6354,-1.2314,0.0659,-0.1427,-0.6701,1.3859,849.9402,-11.58,-18.24,-28.74,154.082,-14.998,-13.201,49.17437819,-121.6781696,0
0.635,0.2169,0.2545,0.9249,0.6354,-1.2314,0.0659,-0.1427,-0.6701,1.3859,849.9402,-11.52,-17.64,-28.92,153.056,-14.998,-13.201,49.17437819,-121.6781696,0
0.638,0.2169,0.2545,0.9249,0.6354,-1.2314,0.0659,-0.2812,0.9055,0.5529,849.9402,-11.52,-17.64,-28.92,153.056,-14.998,-13.201,49.17437819,-121.6781696,0
0.653,0.2169,0.2545,0.9249,0.2855,-0.407,-0.1213,-0.2812,0.9055,0.5529,849.9402,-11.52,-17.64,-28.92,153.056,-14.998,-13.201,49.17437819,-121.6781696,0
0.696,0.1119,0.2843,0.8633,0.2855,-0.407,-0.1213,-0.2812,0.9055,0.5529,849.9402,-11.52,-17.64,-28.92,133.853,-18.087,-7.385,49.17437819,-121.6781696,0
0.7,0.1119,0.2843,0.8633,0.2855,-0.407,-0.1213,-0.2812,0.9055,0.5529,849.9402,-11.34,-16.98,-29.16,131.829,-18.087,-7.385,49.17437819,-121.6781696,0
0.704,0.1119,0.2843,0.8633,0.2855,-0.407,-0.1213,-0.2301,1.0525,-0.0671,849.9402,-11.34,-16.98,-29.16,131.829,-18.087,-7.385,49.17437819,-121.6781696,0
0.708,0.1119,0.2843,0.8633,0.2855,-0.407,-0.1213,-0.2301,1.0525,-0.0671,850.002,-11.34,-16.98,-29.16,131.829,-18.087,-7.385,49.17437819,-121.6781696,0
0.714,0.1119,0.2843,0.8633,0.2855,-0.407,-0.1213,-0.2301,1.0525,-0.0671,850.002,-11.34,-16.98,-29.16,131.829,-18.087,-7.385,49.17437819,-121.6781696,0
0.718,0.1119,0.2843,0.8633,-0.1673,-0.0174,-0.8514,-0.2301,1.0525,-0.0671,850.002,-11.34,-16.98,-29.16,131.829,-18.087,-7.385,49.17437819,-121.6781696,0
0.754,0.0616,0.168,0.9527,-0.1673,-0.0174,-0.8514,-0.2301,1.0525,-0.0671,850.002,-11.34,-16.98,-29.16,140.758,-9.981,-3.697,49.17437819,-121.6781696,0
0.756,0.0616,0.168,0.9527,-0.1673,-0.0174,-0.8514,-0.2301,1.0525,-0.0671,850.002,-10.98,-16.08,-29.46,139.536,-9.981,-3.697,49.17437819,-121.6781696,0
0.758,0.0616,0.168,0.9527,-0.1673,-0.0174,-0.8514,-0.5209,1.4488,0.0501,850.002,-10.98,-16.08,-29.46,139.536,-9.981,-3.697,49.17437819,-121.6781696,0
0.776,0.0616,0.168,0.9527,-0.0719,-0.841,-0.125,-0.5209,1.4488,0.0501,850.002,-10.98,-16.08,-29.46,139.536,-9.981,-3.697,49.17437819,-121.6781696,0
0.817,0.0708,0.2091,1.0001,-0.0719,-0.841,-0.125,-0.5209,1.4488,0.0501,850.002,-10.98,-16.08,-29.46,137.215,-11.778,-4.052,49.17437819,-121.6781696,0
0.82,0.0708,0.2091,1.0001,-0.0719,-0.841,-0.125,-0.5209,1.4488,0.0501,850.002,-10.5,-15.06,-29.82,135.519,-11.778,-4.052,49.17437819,-121.6781696,0
0.823,0.0708,0.2091,1.0001,-0.0719,-0.841,-0.125,-0.784,0.9502,0.3931,850.002,-10.5,-15.06,-29.82,135.519,-11.778,-4.052,49.17437819,-121.6781696,0
0.835,0.0708,0.2091,1.0001,0.6069,0.0128,0.2087,-0.784,0.9502,0.3931,850.002,-10.5,-15.06,-29.82,135.519,-11.778,-4.052,49.17437819,-121.6781696,0
0.881,-0.1779,0.4074,1.1384,0.6069,0.0128,0.2087,-0.784,0.9502,0.3931,850.002,-10.5,-15.06,-29.82,108.173,-19.474,8.88,49.17437819,-121.6781696,0
0.887,-0.1779,0.4074,1.1384,0.6069,0.0128,0.2087,-0.784,0.9502,0.3931,850.002,-9.84,-13.92,-30.24,104.305,-19.474,8.88,49.17437819,-121.6781696,0
0.9,-0.1779,0.4074,1.1384,0.6069,0.0128,0.2087,0.0256,1.7651,0.3334,850.002,-9.84,-13.92,-30.24,104.305,-19.474,8.88,49.17437819,-121.6781696,0
0.905,-0.1779,0.4074,1.1384,0.6069,0.0128,0.2087,0.0256,1.7651,0.3334,850.022,-9.84,-13.92,-30.24,104.305,-19.474,8.88,49.17437819,-121.6781696,0
0.907,-0.1779,0.4074,1.1384,0.6069,0.0128,0.2087,0.0256,1.7651,0.3334,850.022,-9.84,-13.92,-30.24,104.305,-19.474,8.88,49.17437819,-121.6781696,0
0.908,-0.1779,0.4074,1.1384,-1.1343,2.1707,1.5398,0.0256,1.7651,0.3334,850.022,-9.84,-13.92,-30.24,104.305,-19.474,8.88,49.17437819,-121.6781696,0
0.934,-0.3845,0.1949,0.9537,-1.1343,2.1707,1.5398,0.0256,1.7651,0.3334,850.022,-9.84,-13.92,-30.24,114.096,-10.732,21.959,49.17437819,-121.6781696,0
0.936,-0.3845,0.1949,0.9537,-1.1343,2.1707,1.5398,0.0256,1.7651,0.3334,850.022,-8.88,-12.6,-30.78,111.259,-10.732,21.959,49.17437819,-121.6781696,0
0.938,-0.3845,0.1949,0.9537,-1.1343,2.1707,1.5398,0.2961,0.5284,0.3537,850.022,-8.88,-12.6,-30.78,111.259,-10.732,21.959,49.17437819,-121.6781696,0
0.955,-0.3845,0.1949,0.9537,-2.2648,-0.0623,-0.1415,0.2961,0.5284,0.3537,850.022,-8.88,-12.6,-30.78,111.259,-10.732,21.959,49.17437819,-121.6781696,0
0.997,-0.0269,0.149,0.7583,-2.2648,-0.0623,-0.1415,0.2961,0.5284,0.3537,850.022,-8.88,-12.6,-30.78,123.11,-11.108,2.03,49.17437819,-121.6781696,0
1,-0.0269,0.149,0.7583,-2.2648,-0.0623,-0.1415,0.2961,0.5284,0.3537,850.022,-7.62,-11.34,-31.44,120.425,-11.108,2.03,49.17437819,-121.6781696,0
1.005,-0.0269,0.149,0.7583,-2.2648,-0.0623,-0.1415,0.5422,0.0735,0.7563,850.022,-7.62,-11.34,-31.44,120.425,-11.108,2.03,49.17437819,-121.6781696,0
1.02,-0.0269,0.149,0.7583,1.2441,-0.9469,-1.9554,0.5422,0.0735,0.7563,850.022,-7.62,-11.34,-31.44,120.425,-11.108,2.03,49.17437819,-121.6781696,0
1.053,-0.1417,0.1856,1.0226,1.2441,-0.9469,-1.9554,0.5422,0.0735,0.7563,850.022,-7.62,-11.34,-31.44,116.192,-10.192,7.889,49.17437819,-121.6781696,0
1.055,-0.1417,0.1856,1.0226,1.2441,-0.9469,-1.9554,0.5422,0.0735,0.7563,850.022,-6.24,-10.08,-32.1,112.78,-10.192,7.889,49.17437819,-121.6781696,0
1.056,-0.1417,0.1856,1.0226,1.2441,-0.9469,-1.9554,0.3025,-0.7723,1.2623,850.022,-6.24,-10.08,-32.1,112.78,-10.192,7.889,49.17437819,-121.6781696,0
1.057,-0.1417,0.1856,1.0226,1.2441,-0.9469,-1.9554,0.3025,-0.7723,1.2623,850.177,-6.24,-10.08,-32.1,112.78,-10.192,7.889,49.17437819,-121.6781696,0
1.058,-0.1417,0.1856,1.0226,1.2441,-0.9469,-1.9554,0.3025,-0.7723,1.2623,850.177,-6.24,-10.08,-32.1,112.78,-10.192,7.889,49.17437819,-121.6781696,0
1.073,-0.1417,0.1856,1.0226,-0.251,-0.8214,0.6458,0.3025,-0.7723,1.2623,850.177,-6.24,-10.08,-32.1,112.78,-10.192,7.889,49.17437819,-121.6781696,0
1.112,-0.2121,0.1475,0.8623,-0.251,-0.8214,0.6458,0.3025,-0.7723,1.2623,850.177,-6.24,-10.08,-32.1,110.313,-9.431,13.815,49.17437819,-121.6781696,0
1.114,-0.2121,0.1475,0.8623,-0.251,-0.8214,0.6458,0.3025,-0.7723,1.2623,850.177,-4.8,-8.88,-32.82,106.599,-9.431,13.815,49.17437819,-121.6781696,0
1.115,-0.2121,0.1475,0.8623,-0.251,-0.8214,0.6458,0.147,-0.6019,1.0898,850.177,-4.8,-8.88,-32.82,106.599,-9.431,13.815,49.17437819,-121.6781696,0
1.133,-0.2121,0.1475,0.8623,-1.316,-1.3631,-0.914,0.147,-0.6019,1.0898,850.177,-4.8,-8.88,-32.82,106.599,-9.431,13.815,49.17437819,-121.6781696,0
1.175,0.0279,0.2096,0.8379,-1.316,-1.3631,-0.914,0.147,-0.6019,1.0898,850.177,-4.8,-8.88,-32.82,99.526,-14.034,-1.904,49.17437819,-121.6781696,0
1.176,0.0279,0.2096,0.8379,-1.316,-1.3631,-0.914,0.147,-0.6019,1.0898,850.177,-3.3,-7.62,-33.54,70.749,-14.034,-1.904,49.17437819,-121.6781696,0
1.178,0.0279,0.2096,0.8379,-1.316,-1.3631,-0.914,-0.0202,0.5401,1.257,850.177,-3.3,-7.62,-33.54,70.749,-14.034,-1.904,49.17437819,-121.6781696,0
1.194,0.0279,0.2096,0.8379,0.8778,-0.883,-1.1255,-0.0202,0.5401,1.257,850.177,-3.3,-7.62,-33.54,70.749,-14.034,-1.904,49.17437819,-121.6781696,0
1.234,-0.1026,0.2418,1.3739,0.8778,-0.883,-1.1255,-0.0202,0.5401,1.257,850.177,-3.3,-7.62,-33.54,106.966,-9.954,4.271,49.17437819,-121.6781696,0
1.235,-0.1026,0.2418,1.3739,0.8778,-0.883,-1.1255,-0.0202,0.5401,1.257,850.177,-1.86,-6.42,-34.32,95.582,-9.954,4.271,49.17437819,-121.6781696,0
1.237,-0.1026,0.2418,1.3739,0.8778,-0.883,-1.1255,0.2376,0.0767,2.1114,850.177,-1.86,-6.42,-34.32,95.582,-9.954,4.271,49.17437819,-121.6781696,0
1.238,-0.1026,0.2418,1.3739,0.8778,-0.883,-1.1255,0.2376,0.0767,2.1114,850.0422,-1.86,-6.42,-34.32,95.582,-9.954,4.271,49.17437819,-121.6781696,0
1.24,-0.1026,0.2418,1.3739,0.8778,-0.883,-1.1255,0.2376,0.0767,2.1114,850.0422,-1.86,-6.42,-34.32,95.582,-9.954,4.271,49.17437819,-121.6781696,0
1.256,-0.1026,0.2418,1.3739,-0.2531,-0.5558,4.1346,0.2376,0.0767,2.1114,850.0422,-1.86,-6.42,-34.32,95.582,-9.954,4.271,49.17437819,-121.6781696,0
1.291,0.0845,0.3669,0.4622,-0.2531,-0.5558,4.1346,0.2376,0.0767,2.1114,850.0422,-1.86,-6.42,-34.32,-15.262,-37.986,-10.365,49.17437819,-121.6781696,0
1.296,0.0845,0.3669,0.4622,-0.2531,-0.5558,4.1346,0.2376,0.0767,2.1114,850.0422,-0.36,-5.22,-35.04,-19.145,-37.986,-10.365,49.17437819,-121.6781696,0
1.298,0.0845,0.3669,0.4622,-0.2531,-0.5558,4.1346,-0.2759,-0.3249,1.1441,850.0422,-0.36,-5.22,-35.04,-19.145,-37.986,-10.365,49.17437819,-121.6781696,0
1.313,0.0845,0.3669,0.4622,1.4964,-0.0064,-4.5675,-0.2759,-0.3249,1.1441,850.0422,-0.36,-5.22,-35.04,-19.145,-37.986,-10.365,49.17437819,-121.6781696,0
1.351,0.2081,0.2394,0.9952,1.4964,-0.0064,-4.5675,-0.2759,-0.3249,1.1441,850.0422,-0.36,-5.22,-35.04,-67.717,-13.247,-11.813,49.17437819,-121.6781696,0
1.353,0.2081,0.2394,0.9952,1.4964,-0.0064,-4.5675,-0.2759,-0.3249,1.1441,850.0422,1.14,-4.02,-35.88,-64.25,-13.247,-11.813,49.17437819,-121.6781696,0
1.355,0.2081,0.2394,0.9952,1.4964,-0.0064,-4.5675,-0.1683,-0.7009,0.3824,850.0422,1.14,-4.02,-35.88,-64.25,-13.247,-11.813,49.17437819,-121.6781696,0
1.372,0.2081,0.2394,0.9952,2.2035,-0.6247,0.4088,-0.1683,-0.7009,0.3824,850.0422,1.14,-4.02,-35.88,-64.25,-13.247,-11.813,49.17437819,-121.6781696,0
1.414,0.1847,0.2648,1.1345,2.2035,-0.6247,0.4088,-0.1683,-0.7009,0.3824,850.0422,1.14,-4.02,-35.88,-59.922,-12.972,-9.247,49.17437819,-121.6781696,0
1.416,0.1847,0.2648,1.1345,2.2035,-0.6247,0.4088,-0.1683,-0.7009,0.3824,850.0422,2.64,-2.94,-36.6,-58.756,-12.972,-9.247,49.17437819,-121.6781696,0
1.417,0.1847,0.2648,1.1345,2.2035,-0.6247,0.4088,0.5039,-1.958,-0.3739,850.0422,2.64,-2.94,-36.6,-58.756,-12.972,-9.247,49.17437819,-121.6781696,0
1.419,0.1847,0.2648,1.1345,2.2035,-0.6247,0.4088,0.5039,-1.958,-0.3739,850.0256,2.64,-2.94,-36.6,-58.756,-12.972,-9.247,49.17437819,-121.6781696,0
1.422,0.1847,0.2648,1.1345,2.2035,-0.6247,0.4088,0.5039,-1.958,-0.3739,850.0256,2.64,-2.94,-36.6,-58.756,-12.972,-9.247,49.17437819,-121.6781696,0
1.432,0.1847,0.2648,1.1345,0.9042,-0.536,1.8688,0.5039,-1.958,-0.3739,850.0256,2.64,-2.94,-36.6,-58.756,-12.972,-9.247,49.17437819,-121.6781696,0
1.475,-0.0132,0.1998,1.0505,0.9042,-0.536,1.8688,0.5039,-1.958,-0.3739,850.0256,2.64,-2.94,-36.6,-28.865,-10.767,0.72,49.17437819,-121.6781696,0
1.477,-0.0132,0.1998,1.0505,0.9042,-0.536,1.8688,0.5039,-1.958,-0.3739,850.0256,4.02,-1.86,-37.32,-34.567,-10.767,0.72,49.17437819,-121.6781696,0
1.478,-0.0132,0.1998,1.0505,0.9042,-0.536,1.8688,0.2365,-0.4069,-0.8607,850.0256,4.02,-1.86,-37.32,-34.567,-10.767,0.72,49.17437819,-121.6781696,0
1.492,-0.0132,0.1998,1.0505,-1.2496,-1.3528,1.1318,0.2365,-0.4069,-0.8607,850.0256,4.02,-1.86,-37.32,-34.567,-10.767,0.72,49.17437819,-121.6781696,0
1.532,-0.0244,0.2648,0.9048,-1.2496,-1.3528,1.1318,0.2365,-0.4069,-0.8607,850.0256,4.02,-1.86,-37.32,-19.054,-16.304,1.547,49.17437819,-121.6781696,0
1.534,-0.0244,0.2648,0.9048,-1.2496,-1.3528,1.1318,0.2365,-0.4069,-0.8607,850.0256,5.16,-1.02,-37.8,-23.171,-16.304,1.547,49.17437819,-121.6781696,0
1.536,-0.0244,0.2648,0.9048,-1.2496,-1.3528,1.1318,-1.4914,-0.2759,-0.7073,850.0256,5.16,-1.02,-37.8,-23.171,-16.304,1.547,49.17437819,-121.6781696,0
1.551,-0.0244,0.2648,0.9048,-1.3676,-0.1838,-0.4694,-1.4914,-0.2759,-0.7073,850.0256,5.16,-1.02,-37.8,-23.171,-16.304,1.547,49.17437819,-121.6781696,0
1.595,0.0752,0.3361,0.8843,-1.3676,-0.1838,-0.4694,-1.4914,-0.2759,-0.7073,850.0256,5.16,-1.02,-37.8,-34.311,-20.742,-4.864,49.17437819,-121.6781696,0
1.596,0.0752,0.3361,0.8843,-1.3676,-0.1838,-0.4694,-1.4914,-0.2759,-0.7073,850.0256,6.24,-0.36,-38.34,-36.055,-20.742,-4.864,49.17437819,-121.6781696,0
1.598,0.0752,0.3361,0.8843,-1.3676,-0.1838,-0.4694,-0.4229,0.0863,-0.3878,850.0256,6.24,-0.36,-38.34,-36.055,-20.742,-4.864,49.17437819,-121.6781696,0
1.6,0.0752,0.3361,0.8843,-1.3676,-0.1838,-0.4694,-0.4229,0.0863,-0.3878,850.2153,6.24,-0.36,-38.34,-36.055,-20.742,-4.864,49.17437819,-121.6781696,0
1.602,0.0752,0.3361,0.8843,-1.3676,-0.1838,-0.4694,-0.4229,0.0863,-0.3878,850.2153,6.24,-0.36,-38.34,-36.055,-20.742,-4.864,49.17437819,-121.6781696,0
1.611,0.0752,0.3361,0.8843,-0.3307,0.848,-0.7701,-0.4229,0.0863,-0.3878,850.2153,6.24,-0.36,-38.34,-36.055,-20.742,-4.864,49.17437819,-121.6781696,0
1.651,-0.0474,0.1925,0.9381,-0.3307,0.848,-0.7701,-0.4229,0.0863,-0.3878,850.2153,6.24,-0.36,-38.34,-30.157,-11.579,2.892,49.17437819,-121.6781696,0
1.653,-0.0474,0.1925,0.9381,-0.3307,0.848,-0.7701,-0.4229,0.0863,-0.3878,850.2153,7.26,0.18,-38.82,-33.379,-11.579,2.892,49.17437819,-121.6781696,0
1.655,-0.0474,0.1925,0.9381,-0.3307,0.848,-0.7701,-1.4296,0.5838,0.1321,850.2153,7.26,0.18,-38.82,-33.379,-11.579,2.892,49.17437819,-121.6781696,0
1.671,-0.0474,0.1925,0.9381,-1.2162,0.0743,-0.4154,-1.4296,0.5838,0.1321,850.2153,7.26,0.18,-38.82,-33.379,-11.579,2.892,49.17437819,-121.6781696,0
1.711,-0.0259,0.0371,0.8281,-1.2162,0.0743,-0.4154,-1.4296,0.5838,0.1321,850.2153,7.26,0.18,-38.82,-72.336,-2.562,1.791,49.17437819,-121.6781696,0
1.716,-0.0259,0.0371,0.8281,-1.2162,0.0743,-0.4154,-1.4296,0.5838,0.1321,850.2153,8.1,0.54,-39.18,-71.484,-2.562,1.791,49.17437819,-121.6781696,0
1.718,-0.0259,0.0371,0.8281,-1.2162,0.0743,-0.4154,-1.4477,1.1686,0.7563,850.2153,8.1,0.54,-39.18,-71.484,-2.562,1.791,49.17437819,-121.6781696,0
1.735,-0.0259,0.0371,0.8281,-0.2781,-0.5664,-1.6467,-1.4477,1.1686,0.7563,850.2153,8.1,0.54,-39.18,-71.484,-2.562,1.791,49.17437819,-121.6781696,0
1.779,0.0713,-0.0523,1.1037,-0.2781,-0.5664,-1.6467,-1.4477,1.1686,0.7563,850.2153,8.1,0.54,-39.18,-96.901,2.71,-3.698,49.17437819,-121.6781696,0
1.782,0.0713,-0.0523,1.1037,-0.2781,-0.5664,-1.6467,-1.4477,1.1686,0.7563,850.2153,8.7,1.14,-39.48,-93.553,2.71,-3.698,49.17437819,-121.6781696,0
1.785,0.0713,-0.0523,1.1037,-0.2781,-0.5664,-1.6467,-1.7374,1.6032,0.2471,850.2153,8.7,1.14,-39.48,-93.553,2.71,-3.698,49.17437819,-121.6781696,0
1.789,0.0713,-0.0523,1.1037,-0.2781,-0.5664,-1.6467,-1.7374,1.6032,0.2471,850.218,8.7,1.14,-39.48,-93.553,2.71,-3.698,49.17437819,-121.6781696,0
1.792,0.0713,-0.0523,1.1037,-0.2781,-0.5664,-1.6467,-1.7374,1.6032,0.2471,850.218,8.7,1.14,-39.48,-93.553,2.71,-3.698,49.17437819,-121.6781696,0
1.799,0.0713,-0.0523,1.1037,1.4629,-0.4284,1.0399,-1.7374,1.6032,0.2471,850.218,8.7,1.14,-39.48,-93.553,2.71,-3.698,49.17437819,-121.6781696,0
1.838,-0.0875,-0.1745,0.791,1.4629,-0.4284,1.0399,-1.7374,1.6032,0.2471,850.218,8.7,1.14,-39.48,-150.11,12.367,6.31,49.17437819,-121.6781696,0
1.841,-0.0875,-0.1745,0.791,1.4629,-0.4284,1.0399,-1.7374,1.6032,0.2471,850.218,9.48,1.98,-39.54,-142.872,12.367,6.31,49.17437819,-121.6781696,0
1.843,-0.0875,-0.1745,0.791,1.4629,-0.4284,1.0399,-1.5031,1.8216,-0.1513,850.218,9.48,1.98,-39.54,-142.872,12.367,6.31,49.17437819,-121.6781696,0
1.851,-0.0875,-0.1745,0.791,0.7098,-0.8334,-1.889,-1.5031,1.8216,-0.1513,850.218,9.48,1.98,-39.54,-142.872,12.367,6.31,49.17437819,-121.6781696,0
1.891,-0.3557,-0.196,1.0436,0.7098,-0.8334,-1.889,-1.5031,1.8216,-0.1513,850.218,9.48,1.98,-39.54,143.624,10.08,18.821,49.17437819,-121.6781696,0
1.894,-0.3557,-0.196,1.0436,0.7098,-0.8334,-1.889,-1.5031,1.8216,-0.1513,850.218,10.2,3.12,-39.36,142.9,10.08,18.821,49.17437819,-121.6781696,0
1.896,-0.3557,-0.196,1.0436,0.7098,-0.8334,-1.889,-1.5095,1.8546,-0.1843,850.218,10.2,3.12,-39.36,142.9,10.08,18.821,49.17437819,-121.6781696,0
1.911,-0.3557,-0.196,1.0436,-0.7953,0.0379,1.0028,-1.5095,1.8546,-0.1843,850.218,10.2,3.12,-39.36,142.9,10.08,18.821,49.17437819,-121.6781696,0
1.954,-0.452,-0.1765,0.6962,-0.7953,0.0379,1.0028,-1.5095,1.8546,-0.1843,850.218,10.2,3.12,-39.36,111.096,12.001,32.991,49.17437819,-121.6781696,0
1.956,-0.452,-0.1765,0.6962,-0.7953,0.0379,1.0028,-1.5095,1.8546,-0.1843,850.218,10.98,4.56,-38.94,106.594,12.001,32.991,49.17437819,-121.6781696,0
1.959,-0.452,-0.1765,0.6962,-0.7953,0.0379,1.0028,-1.2474,1.9761,0.6125,850.218,10.98,4.56,-38.94,106.594,12.001,32.991,49.17437819,-121.6781696,0
1.962,-0.452,-0.1765,0.6962,-0.7953,0.0379,1.0028,-1.2474,1.9761,0.6125,850.1721,10.98,4.56,-38.94,106.594,12.001,32.991,49.17437819,-121.6781696,0
1.965,-0.452,-0.1765,0.6962,-0.7953,0.0379,1.0028,-1.2474,1.9761,0.6125,850.1721,10.98,4.56,-38.94,106.594,12.001,32.991,49.17437819,-121.6781696,0
1.973,-0.452,-0.1765,0.6962,-0.5447,0.8774,-1.796,-1.2474,1.9761,0.6125,850.1721,10.98,4.56,-38.94,106.594,12.001,32.991,49.17437819,-121.6781696,0
2.011,-0.3386,-0.1364,1.0812,-0.5447,0.8774,-1.796,-1.2474,1.9761,0.6125,850.1721,10.98,4.56,-38.94,104.781,6.864,17.389,49.17437819,-121.6781696,0
2.013,-0.3386,-0.1364,1.0812,-0.5447,0.8774,-1.796,-1.2474,1.9761,0.6125,850.1721,11.82,6.12,-38.4,8.752,6.864,17.389,49.17437819,-121.6781696,0
2.015,-0.3386,-0.1364,1.0812,-0.5447,0.8774,-1.796,-1.3476,1.0802,0.7659,850.1721,11.82,6.12,-38.4,8.752,6.864,17.389,49.17437819,-121.6781696,0
2.031,-0.3386,-0.1364,1.0812,1.3332,1.9747,2.6231,-1.3476,1.0802,0.7659,850.1721,11.82,6.12,-38.4,8.752,6.864,17.389,49.17437819,-121.6781696,0
2.071,-0.5668,-0.2458,0.706,1.3332,1.9747,2.6231,-1.3476,1.0802,0.7659,850.1721,11.82,6.12,-38.4,104.667,15.191,38.759,49.17437819,-121.6781696,0
2.073,-0.5668,-0.2458,0.706,1.3332,1.9747,2.6231,-1.3476,1.0802,0.7659,850.1721,12.84,7.92,-37.56,98.999,15.191,38.759,49.17437819,-121.6781696,0
2.075,-0.5668,-0.2458,0.706,1.3332,1.9747,2.6231,-1.0333,1.2101,0.5017,850.1721,12.84,7.92,-37.56,98.999,15.191,38.759,49.17437819,-121.6781696,0
2.095,-0.5668,-0.2458,0.706,-0.1751,1.1222,-0.4814,-1.0333,1.2101,0.5017,850.1721,12.84,7.92,-37.56,98.999,15.191,38.759,49.17437819,-121.6781696,0
2.133,-0.5634,-0.3778,0.7978,-0.1751,1.1222,-0.4814,-1.0333,1.2101,0.5017,850.1721,12.84,7.92,-37.56,119.615,21.145,35.227,49.17437819,-121.6781696,0
2.136,-0.5634,-0.3778,0.7978,-0.1751,1.1222,-0.4814,-1.0333,1.2101,0.5017,850.1721,14.16,9.9,-36.48,115.219,21.145,35.227,49.17437819,-121.6781696,0
2.14,-0.5634,-0.3778,0.7978,-0.1751,1.1222,-0.4814,-0.8533,0.3899,0.6764,850.1721,14.16,9.9,-36.48,115.219,21.145,35.227,49.17437819,-121.6781696,0
2.143,-0.5634,-0.3778,0.7978,-0.1751,1.1222,-0.4814,-0.8533,0.3899,0.6764,849.999,14.16,9.9,-36.48,115.219,21.145,35.227,49.17437819,-121.6781696,0
2.149,-0.5634,-0.3778,0.7978,-0.1751,1.1222,-0.4814,-0.8533,0.3899,0.6764,849.999,14.16,9.9,-36.48,115.219,21.145,35.227,49.17437819,-121.6781696,0
2.153,-0.5634,-0.3778,0.7978,0.2261,-0.0061,0.7846,-0.8533,0.3899,0.6764,849.999,14.16,9.9,-36.48,115.219,21.145,35.227,49.17437819,-121.6781696,0
2.193,-0.5736,-0.4203,0.6268,0.2261,-0.0061,0.7846,-0.8533,0.3899,0.6764,849.999,14.16,9.9,-36.48,117.223,26.318,42.463,49.17437819,-121.6781696,0
2.196,-0.5736,-0.4203,0.6268,0.2261,-0.0061,0.7846,-0.8533,0.3899,0.6764,849.999,15.66,11.94,-35.16,114.234,26.318,42.463,49.17437819,-121.6781696,0
2.199,-0.5736,-0.4203,0.6268,0.2261,-0.0061,0.7846,-1.2485,0.2109,0.7883,849.999,15.66,11.94,-35.16,114.234,26.318,42.463,49.17437819,-121.6781696,0
2.216,-0.5736,-0.4203,0.6268,0.5717,-0.1818,-0.3621,-1.2485,0.2109,0.7883,849.999,15.66,11.94,-35.16,114.234,26.318,42.463,49.17437819,-121.6781696,0
2.264,-0.7735,-0.561,0.6161,0.5717,-0.1818,-0.3621,-1.2485,0.2109,0.7883,849.999,15.66,11.94,-35.16,110.027,29.567,51.462,49.17437819,-121.6781696,0
2.266,-0.7735,-0.561,0.6161,0.5717,-0.1818,-0.3621,-1.2485,0.2109,0.7883,849.999,17.34,14.1,-33.66,107.102,29.567,51.462,49.17437819,-121.6781696,0
2.271,-0.7735,-0.561,0.6161,0.5717,-0.1818,-0.3621,-1.1196,-1.0504,-0.0096,849.999,17.34,14.1,-33.66,107.102,29.567,51.462,49.17437819,-121.6781696,0
2.275,-0.7735,-0.561,0.6161,-1.456,-1.0991,-0.2329,-1.1196,-1.0504,-0.0096,849.999,17.34,14.1,-33.66,107.102,29.567,51.462,49.17437819,-121.6781696,0
2.309,-0.728,-0.5659,0.6938,-1.456,-1.0991,-0.2329,-1.1196,-1.0504,-0.0096,849.999,17.34,14.1,-33.66,112.957,29.366,46.381,49.17437819,-121.6781696,0
2.316,-0.728,-0.5659,0.6938,-1.456,-1.0991,-0.2329,-1.1196,-1.0504,-0.0096,849.999,19.08,16.38,-31.98,108.371,29.366,46.381,49.17437819,-121.6781696,0
2.318,-0.728,-0.5659,0.6938,-1.456,-1.0991,-0.2329,-1.7193,-0.5252,0.0586,849.999,19.08,16.38,-31.98,108.371,29.366,46.381,49.17437819,-121.6781696,0
2.319,-0.728,-0.5659,0.6938,-1.456,-1.0991,-0.2329,-1.7193,-0.5252,0.0586,849.9858,19.08,16.38,-31.98,108.371,29.366,46.381,49.17437819,-121.6781696,0
2.32,-0.728,-0.5659,0.6938,-1.456,-1.0991,-0.2329,-1.7193,-0.5252,0.0586,849.9858,19.08,16.38,-31.98,108.371,29.366,46.381,49.17437819,-121.6781696,0
2.328,-0.728,-0.5659,0.6938,-1.2277,-0.5908,0.7386,-1.7193,-0.5252,0.0586,849.9858,19.08,16.38,-31.98,108.371,29.366,46.381,49.17437819,-121.6781696,0
2.37,-0.8223,-0.9074,1.1467,-1.2277,-0.5908,0.7386,-1.7193,-0.5252,0.0586,849.9858,19.08,16.38,-31.98,153.545,32.743,35.645,49.17437819,-121.6781696,0
2.372,-0.8223,-0.9074,1.1467,-1.2277,-0.5908,0.7386,-1.7193,-0.5252,0.0586,849.9858,20.88,18.9,-30.06,171.968,32.743,35.645,49.17437819,-121.6781696,0
2.374,-0.8223,-0.9074,1.1467,-1.2277,-0.5908,0.7386,0.5017,-1.6107,-0.098,849.9858,20.88,18.9,-30.06,171.968,32.743,35.645,49.17437819,-121.6781696,0
2.391,-0.8223,-0.9074,1.1467,-2.7349,-4.1843,4.4808,0.5017,-1.6107,-0.098,849.9858,20.88,18.9,-30.06,171.968,32.743,35.645,49.17437819,-121.6781696,0
2.433,-0.2336,-0.1657,0.683,-2.7349,-4.1843,4.4808,0.5017,-1.6107,-0.098,849.9858,20.88,18.9,-30.06,-43.566,12.928,18.878,49.17437819,-121.6781696,0
2.44,-0.2336,-0.1657,0.683,-2.7349,-4.1843,4.4808,0.5017,-1.6107,-0.098,849.9858,22.68,21.42,-28.2,-42.921,12.928,18.878,49.17437819,-121.6781696,0
2.443,-0.2336,-0.1657,0.683,-2.7349,-4.1843,4.4808,-0.0692,-1.2251,-0.9193,849.9858,22.68,21.42,-28.2,-42.921,12.928,18.878,49.17437819,-121.6781696,0
2.449,-0.2336,-0.1657,0.683,2.194,3.2398,-0.5465,-0.0692,-1.2251,-0.9193,849.9858,22.68,21.42,-28.2,-42.921,12.928,18.878,49.17437819,-121.6781696,0
2.494,-0.4031,-0.5361,0.6102,2.194,3.2398,-0.5465,-0.0692,-1.2251,-0.9193,849.9858,22.68,21.42,-28.2,-139.974,36.241,33.449,49.17437819,-121.6781696,0
2.499,-0.4031,-0.5361,0.6102,2.194,3.2398,-0.5465,-0.0692,-1.2251,-0.9193,849.9858,24.54,23.94,-26.4,-106.105,36.241,33.449,49.17437819,-121.6781696,0
2.504,-0.4031,-0.5361,0.6102,2.194,3.2398,-0.5465,0.6434,-1.6757,-0.2738,849.9858,24.54,23.94,-26.4,-106.105,36.241,33.449,49.17437819,-121.6781696,0
2.509,-0.4031,-0.5361,0.6102,2.194,3.2398,-0.5465,0.6434,-1.6757,-0.2738,849.9785,24.54,23.94,-26.4,-106.105,36.241,33.449,49.17437819,-121.6781696,0
2.514,-0.4031,-0.5361,0.6102,2.194,3.2398,-0.5465,0.6434,-1.6757,-0.2738,849.9785,24.54,23.94,-26.4,-106.105,36.241,33.449,49.17437819,-121.6781696,0
2.519,-0.4031,-0.5361,0.6102,-0.6139,-0.2862,-1.7893,0.6434,-1.6757,-0.2738,849.9785,24.54,23.94,-26.4,-106.105,36.241,33.449,49.17437819,-121.6781696,0
2.55,-0.3308,-0.4818,0.6219,-0.6139,-0.2862,-1.7893,0.6434,-1.6757,-0.2738,849.9785,24.54,23.94,-26.4,-89.412,34.372,28.007,49.17437819,-121.6781696,0
2.551,-0.3308,-0.4818,0.6219,-0.6139,-0.2862,-1.7893,0.6434,-1.6757,-0.2738,849.9785,26.04,26.46,-24.84,-77.288,34.372,28.007,49.17437819,-121.6781696,0
2.553,-0.3308,-0.4818,0.6219,-0.6139,-0.2862,-1.7893,-0.3728,-0.0703,-0.1917,849.9785,26.04,26.46,-24.84,-77.288,34.372,28.007,49.17437819,-121.6781696,0
2.574,-0.3308,-0.4818,0.6219,-0.1414,0.3817,-1.6838,-0.3728,-0.0703,-0.1917,849.9785,26.04,26.46,-24.84,-77.288,34.372,28.007,49.17437819,-121.6781696,0
2.62,-0.5512,-0.4994,0.6283,-0.1414,0.3817,-1.6838,-0.3728,-0.0703,-0.1917,849.9785,26.04,26.46,-24.84,-36.441,30.861,41.258,49.17437819,-121.6781696,0
2.632,-0.5512,-0.4994,0.6283,-0.1414,0.3817,-1.6838,-0.3728,-0.0703,-0.1917,849.9785,27.48,29.04,-23.28,-38.561,30.861,41.258,49.17437819,-121.6781696,0
2.639,-0.5512,-0.4994,0.6283,-0.1414,0.3817,-1.6838,0.3728,0.9374,0.5646,849.9785,27.48,29.04,-23.28,-38.561,30.861,41.258,49.17437819,-121.6781696,0
2.644,-0.5512,-0.4994,0.6283,-2.015,0.0234,-1.6221,0.3728,0.9374,0.5646,849.9785,27.48,29.04,-23.28,-38.561,30.861,41.258,49.17437819,-121.6781696,0
2.67,-0.1661,-0.2175,0.9522,-2.015,0.0234,-1.6221,0.3728,0.9374,0.5646,849.9785,27.48,29.04,-23.28,-46.023,12.681,9.896,49.17437819,-121.6781696,0
2.673,-0.1661,-0.2175,0.9522,-2.015,0.0234,-1.6221,0.3728,0.9374,0.5646,849.9785,28.92,31.68,-21.78,-44.586,12.681,9.896,49.17437819,-121.6781696,0
2.675,-0.1661,-0.2175,0.9522,-2.015,0.0234,-1.6221,-0.2823,0.5454,0.3419,849.9785,28.92,31.68,-21.78,-44.586,12.681,9.896,49.17437819,-121.6781696,0
2.676,-0.1661,-0.2175,0.9522,-2.015,0.0234,-1.6221,-0.2823,0.5454,0.3419,849.9829,28.92,31.68,-21.78,-44.586,12.681,9.896,49.17437819,-121.6781696,0
2.678,-0.1661,-0.2175,0.9522,-2.015,0.0234,-1.6221,-0.2823,0.5454,0.3419,849.9829,28.92,31.68,-21.78,-44.586,12.681,9.896,49.17437819,-121.6781696,0
2.69,-0.1661,-0.2175,0.9522,2.2739,3.0576,1.9822,-0.2823,0.5454,0.3419,849.9829,28.92,31.68,-21.78,-44.586,12.681,9.896,49.17437819,-121.6781696,0
2.73,-0.3826,-0.603,0.5013,2.2739,3.0576,1.9822,-0.2823,0.5454,0.3419,849.9829,28.92,31.68,-21.78,-96.979,43.72,37.353,49.17437819,-121.6781696,0
2.734,-0.3826,-0.603,0.5013,2.2739,3.0576,1.9822,-0.2823,0.5454,0.3419,849.9829,30.42,33.96,-20.34,-87.034,43.72,37.353,49.17437819,-121.6781696,0
2.737,-0.3826,-0.603,0.5013,2.2739,3.0576,1.9822,-0.2184,0.4261,0.376,849.9829,30.42,33.96,-20.34,-87.034,43.72,37.353,49.17437819,-121.6781696,0
2.751,-0.3826,-0.603,0.5013,0.402,-0.7505,-2.3211,-0.2184,0.4261,0.376,849.9829,30.42,33.96,-20.34,-87.034,43.72,37.353,49.17437819,-121.6781696,0
2.79,-0.3259,-0.559,0.7886,0.402,-0.7505,-2.3211,-0.2184,0.4261,0.376,849.9829,30.42,33.96,-20.34,-60.02,33.232,22.455,49.17437819,-121.6781696,0
2.794,-0.3259,-0.559,0.7886,0.402,-0.7505,-2.3211,-0.2184,0.4261,0.376,849.9829,31.68,35.76,-19.02,-58.203,33.232,22.455,49.17437819,-121.6781696,0
2.8,-0.3259,-0.559,0.7886,0.402,-0.7505,-2.3211,-0.7574,-0.3313,-0.0874,849.9829,31.68,35.76,-19.02,-58.203,33.232,22.455,49.17437819,-121.6781696,0
2.809,-0.3259,-0.559,0.7886,0.8663,-0.1482,0.5674,-0.7574,-0.3313,-0.0874,849.9829,31.68,35.76,-19.02,-58.203,33.232,22.455,49.17437819,-121.6781696,0
2.861,-0.6059,-0.5121,1.3128,0.8663,-0.1482,0.5674,-0.7574,-0.3313,-0.0874,849.9829,31.68,35.76,-19.02,-41.492,19.504,24.773,49.17437819,-121.6781696,0
2.866,-0.6059,-0.5121,1.3128,0.8663,-0.1482,0.5674,-0.7574,-0.3313,-0.0874,849.9829,32.64,37.26,-17.76,-41.403,19.504,24.773,49.17437819,-121.6781696,0
2.871,-0.6059,-0.5121,1.3128,0.8663,-0.1482,0.5674,-1.7332,-0.9385,0.0895,849.9829,32.64,37.26,-17.76,-41.403,19.504,24.773,49.17437819,-121.6781696,0
2.883,-0.6059,-0.5121,1.3128,0.8663,-0.1482,0.5674,-1.7332,-0.9385,0.0895,850.0972,32.64,37.26,-17.76,-41.403,19.504,24.773,49.17437819,-121.6781696,0
2.885,-0.6059,-0.5121,1.3128,0.8663,-0.1482,0.5674,-1.7332,-0.9385,0.0895,850.0972,32.64,37.26,-17.76,-41.403,19.504,24.773,49.17437819,-121.6781696,0
2.886,-0.6059,-0.5121,1.3128,-1.9114,0.9072,6.1694,-1.7332,-0.9385,0.0895,850.0972,32.64,37.26,-17.76,-41.403,19.504,24.773,49.17437819,-121.6781696,0
2.91,0.1153,-0.3968,0.5311,-1.9114,0.9072,6.1694,-1.7332,-0.9385,0.0895,850.0972,32.64,37.26,-17.76,-56.128,36.137,-12.251,49.17437819,-121.6781696,0
2.912,0.1153,-0.3968,0.5311,-1.9114,0.9072,6.1694,-1.7332,-0.9385,0.0895,850.0972,33.3,38.4,-16.62,-54.633,36.137,-12.251,49.17437819,-121.6781696,0
2.915,0.1153,-0.3968,0.5311,-1.9114,0.9072,6.1694,-0.4453,0.8437,0.2152,850.0972,33.3,38.4,-16.62,-54.633,36.137,-12.251,49.17437819,-121.6781696,0
2.931,0.1153,-0.3968,0.5311,5.4111,2.0921,-1.2819,-0.4453,0.8437,0.2152,850.0972,33.3,38.4,-16.62,-54.633,36.137,-12.251,49.17437819,-121.6781696,0
2.971,-0.2941,-0.4901,0.6835,5.4111,2.0921,-1.2819,-0.4453,0.8437,0.2152,850.0972,33.3,38.4,-16.62,-55.626,33.372,23.284,49.17437819,-121.6781696,0
2.976,-0.2941,-0.4901,0.6835,5.4111,2.0921,-1.2819,-0.4453,0.8437,0.2152,850.0972,33.84,39.42,-15.54,-54.623,33.372,23.284,49.17437819,-121.6781696,0
2.979,-0.2941,-0.4901,0.6835,5.4111,2.0921,-1.2819,-0.3686,1.0749,0.3654,850.0972,33.84,39.42,-15.54,-54.623,33.372,23.284,49.17437819,-121.6781696,0
2.991,-0.2941,-0.4901,0.6835,1.8215,1.3001,0.6329,-0.3686,1.0749,0.3654,850.0972,33.84,39.42,-15.54,-54.623,33.372,23.284,49.17437819,-121.6781696,0
3.029,-0.5243,-0.6802,0.5443,1.8215,1.3001,0.6329,-0.3686,1.0749,0.3654,850.0972,33.84,39.42,-15.54,-65.809,41.991,43.929,49.17437819,-121.6781696,0
3.034,-0.5243,-0.6802,0.5443,1.8215,1.3001,0.6329,-0.3686,1.0749,0.3654,850.0972,34.26,40.32,-14.58,-64.188,41.991,43.929,49.17437819,-121.6781696,0
3.037,-0.5243,-0.6802,0.5443,1.8215,1.3001,0.6329,-0.4719,0.3771,-0.3654,850.0972,34.26,40.32,-14.58,-64.188,41.991,43.929,49.17437819,-121.6781696,0
3.04,-0.5243,-0.6802,0.5443,1.8215,1.3001,0.6329,-0.4719,0.3771,-0.3654,850.0852,34.26,40.32,-14.58,-64.188,41.991,43.929,49.17437819,-121.6781696,0
3.043,-0.5243,-0.6802,0.5443,1.8215,1.3001,0.6329,-0.4719,0.3771,-0.3654,850.0852,34.26,40.32,-14.58,-64.188,41.991,43.929,49.17437819,-121.6781696,0
3.049,-0.5243,-0.6802,0.5443,-0.3097,-0.4508,-0.5168,-0.4719,0.3771,-0.3654,850.0852,34.26,40.32,-14.58,-64.188,41.991,43.929,49.17437819,-121.6781696,0
3.098,-0.7183,-0.7291,0.5296,-0.3097,-0.4508,-0.5168,-0.4719,0.3771,-0.3654,850.0852,34.26,40.32,-14.58,-45.993,39.248,53.598,49.17437819,-121.6781696,0
3.109,-0.7183,-0.7291,0.5296,-0.3097,-0.4508,-0.5168,-0.4719,0.3771,-0.3654,850.0852,34.44,41.1,-13.74,-45.767,39.248,53.598,49.17437819,-121.6781696,0
3.121,-0.7183,-0.7291,0.5296,-0.3097,-0.4508,-0.5168,-0.93,0.4112,-0.2844,850.0852,34.44,41.1,-13.74,-45.767,39.248,53.598,49.17437819,-121.6781696,0
3.143,-0.7183,-0.7291,0.5296,-2.2193,-0.5237,-0.2045,-0.93,0.4112,-0.2844,850.0852,34.44,41.1,-13.74,-45.767,39.248,53.598,49.17437819,-121.6781696,0
3.161,-0.5194,-0.5708,0.1392,-2.2193,-0.5237,-0.2045,-0.93,0.4112,-0.2844,850.0852,34.44,41.1,-13.74,72.405,46.707,74.998,49.17437819,-121.6781696,0
3.163,-0.5194,-0.5708,0.1392,-2.2193,-0.5237,-0.2045,-0.93,0.4112,-0.2844,850.0852,34.44,41.94,-12.96,59.712,46.707,74.998,49.17437819,-121.6781696,0
3.165,-0.5194,-0.5708,0.1392,-2.2193,-0.5237,-0.2045,-1.8536,-0.4677,-0.6487,850.0852,34.44,41.94,-12.96,59.712,46.707,74.998,49.17437819,-121.6781696,0
3.167,-0.5194,-0.5708,0.1392,-0.3485,1.6169,-3.294,-1.8536,-0.4677,-0.6487,850.0852,34.44,41.94,-12.96,59.712,46.707,74.998,49.17437819,-121.6781696,0
3.209,-0.2453,-0.3108,0.3913,-0.3485,1.6169,-3.294,-1.8536,-0.4677,-0.6487,850.0852,34.44,41.94,-12.96,-50.394,33.941,32.08,49.17437819,-121.6781696,0
3.21,-0.2453,-0.3108,0.3913,-0.3485,1.6169,-3.294,-1.8536,-0.4677,-0.6487,850.0852,34.32,42.78,-12.06,-49.147,33.941,32.08,49.17437819,-121.6781696,0
3.214,-0.2453,-0.3108,0.3913,-0.3485,1.6169,-3.294,-0.0852,1.2176,-1.2783,850.0852,34.32,42.78,-12.06,-49.147,33.941,32.08,49.17437819,-121.6781696,0
3.215,-0.2453,-0.3108,0.3913,-0.3485,1.6169,-3.294,-0.0852,1.2176,-1.2783,850.0532,34.32,42.78,-12.06,-49.147,33.941,32.08,49.17437819,-121.6781696,0
3.217,-0.2453,-0.3108,0.3913,-0.3485,1.6169,-3.294,-0.0852,1.2176,-1.2783,850.0532,34.32,42.78,-12.06,-49.147,33.941,32.08,49.17437819,-121.6781696,0
3.228,-0.2453,-0.3108,0.3913,2.0117,4.8252,-0.0014,-0.0852,1.2176,-1.2783,850.0532,34.32,42.78,-12.06,-49.147,33.941,32.08,49.17437819,-121.6781696,0
3.267,-1.2372,-1.2289,0.3644,2.0117,4.8252,-0.0014,-0.0852,1.2176,-1.2783,850.0532,34.32,42.78,-12.06,17.562,43.617,73.586,49.17437819,-121.6781696,0
3.269,-1.2372,-1.2289,0.3644,2.0117,4.8252,-0.0014,-0.0852,1.2176,-1.2783,850.0532,33.9,43.68,-10.86,6.757,43.617,73.586,49.17437819,-121.6781696,0
3.27,-1.2372,-1.2289,0.3644,2.0117,4.8252,-0.0014,0.2131,0.5103,-0.5571,850.0532,33.9,43.68,-10.86,6.757,43.617,73.586,49.17437819,-121.6781696,0
3.288,-1.2372,-1.2289,0.3644,-7.9515,-4.2785,-0.7253,0.2131,0.5103,-0.5571,850.0532,33.9,43.68,-10.86,6.757,43.617,73.586,49.17437819,-121.6781696,0
3.327,-0.257,-0.7672,0.3043,-7.9515,-4.2785,-0.7253,0.2131,0.5103,-0.5571,850.0532,33.9,43.68,-10.86,-109.382,62.56,40.18,49.17437819,-121.6781696,0
3.332,-0.257,-0.7672,0.3043,-7.9515,-4.2785,-0.7253,0.2131,0.5103,-0.5571,850.0532,33.42,44.52,-9.9,-105.567,62.56,40.18,49.17437819,-121.6781696,0
3.334,-0.257,-0.7672,0.3043,-7.9515,-4.2785,-0.7253,0.6466,-0.5412,1.7918,850.0532,33.42,44.52,-9.9,-105.567,62.56,40.18,49.17437819,-121.6781696,0
3.348,-0.257,-0.7672,0.3043,2.4527,-0.1864,-1.2243,0.6466,-0.5412,1.7918,850.0532,33.42,44.52,-9.9,-105.567,62.56,40.18,49.17437819,-121.6781696,0
3.39,-0.4109,-0.8209,0.8218,2.4527,-0.1864,-1.2243,0.6466,-0.5412,1.7918,850.0532,33.42,44.52,-9.9,-55.746,41.78,26.567,49.17437819,-121.6781696,0
3.4,-0.4109,-0.8209,0.8218,2.4527,-0.1864,-1.2243,0.6466,-0.5412,1.7918,850.0532,32.88,45.42,-8.88,-53.561,41.78,26.567,49.17437819,-121.6781696,0
3.403,-0.4109,-0.8209,0.8218,2.4527,-0.1864,-1.2243,0.4911,-1.1888,-0.8107,850.0532,32.88,45.42,-8.88,-53.561,41.78,26.567,49.17437819,-121.6781696,0
3.406,-0.4109,-0.8209,0.8218,2.4527,-0.1864,-1.2243,0.4911,-1.1888,-0.8107,849.9451,32.88,45.42,-8.88,-53.561,41.78,26.567,49.17437819,-121.6781696,0
3.409,-0.4109,-0.8209,0.8218,2.4527,-0.1864,-1.2243,0.4911,-1.1888,-0.8107,849.9451,32.88,45.42,-8.88,-53.561,41.78,26.567,49.17437819,-121.6781696,0
3.414,-0.4109,-0.8209,0.8218,0.7095,-0.9702,3.1873,0.4911,-1.1888,-0.8107,849.9451,32.88,45.42,-8.88,-53.561,41.78,26.567,49.17437819,-121.6781696,0
3.448,-0.4979,-0.6528,0.4656,0.7095,-0.9702,3.1873,0.4911,-1.1888,-0.8107,849.9451,32.88,45.42,-8.88,-53.089,43.763,46.921,49.17437819,-121.6781696,0
3.45,-0.4979,-0.6528,0.4656,0.7095,-0.9702,3.1873,0.4911,-1.1888,-0.8107,849.9451,32.46,46.32,-7.92,-50.909,43.763,46.921,49.17437819,-121.6781696,0
3.451,-0.4979,-0.6528,0.4656,0.7095,-0.9702,3.1873,0.082,1.127,0.196,849.9451,32.46,46.32,-7.92,-50.909,43.763,46.921,49.17437819,-121.6781696,0
3.469,-0.4979,-0.6528,0.4656,-0.3092,0.7893,-0.2982,0.082,1.127,0.196,849.9451,32.46,46.32,-7.92,-50.909,43.763,46.921,49.17437819,-121.6781696,0
3.508,-0.4354,-0.8419,0.4998,-0.3092,0.7893,-0.2982,0.082,1.127,0.196,849.9451,32.46,46.32,-7.92,-69.498,51.789,41.058,49.17437819,-121.6781696,0
3.511,-0.4354,-0.8419,0.4998,-0.3092,0.7893,-0.2982,0.082,1.127,0.196,849.9451,32.4,47.28,-6.72,-66.888,51.789,41.058,49.17437819,-121.6781696,0
3.514,-0.4354,-0.8419,0.4998,-0.3092,0.7893,-0.2982,-0.343,-0.2248,-0.0842,849.9451,32.4,47.28,-6.72,-66.888,51.789,41.058,49.17437819,-121.6781696,0
3.528,-0.4354,-0.8419,0.4998,0.2016,-0.9706,0.0812,-0.343,-0.2248,-0.0842,849.9451,32.4,47.28,-6.72,-66.888,51.789,41.058,49.17437819,-121.6781696,0
6.773,0.3523,-0.2038,0.833,0.2016,-0.9706,0.0812,-0.343,-0.2248,-0.0842,849.9451,32.4,47.28,-6.72,-34.326,12.699,-22.924,49.17437819,-121.6781696,0
6.774,0.3523,-0.2038,0.833,0.2016,-0.9706,0.0812,0.2706,0.0767,0.2759,849.9451,32.4,47.28,-6.72,-34.326,12.699,-22.924,49.17437819,-121.6781696,0
6.776,0.3523,-0.2038,0.833,7.976,5.3667,3.5291,0.2706,0.0767,0.2759,849.9451,32.4,47.28,-6.72,-34.326,12.699,-22.924,49.17437819,-121.6781696,0
6.8,0.4031,-0.0211,0.9669,7.976,5.3667,3.5291,0.2706,0.0767,0.2759,849.9451,32.4,47.28,-6.72,-34.431,1.152,-22.631,49.17437819,-121.6781696,0
6.802,0.4031,-0.0211,0.9669,7.976,5.3667,3.5291,0.2706,0.0767,0.2759,849.9451,-4.62,28.26,-25.62,-11.401,1.152,-22.631,49.17437819,-121.6781696,0
6.803,0.4031,-0.0211,0.9669,7.976,5.3667,3.5291,0.2727,0.0096,0.277,849.9451,-4.62,28.26,-25.62,-11.401,1.152,-22.631,49.17437819,-121.6781696,0
6.837,0.4031,-0.0211,0.9669,0.0999,0.0303,0.4597,0.2727,0.0096,0.277,849.9451,-4.62,28.26,-25.62,-11.401,1.152,-22.631,49.17437819,-121.6781696,0
6.86,0.281,-0.2151,1.1531,0.0999,0.0303,0.4597,0.2727,0.0096,0.277,849.9451,-4.62,28.26,-25.62,-3.891,10.271,-13.694,49.17437819,-121.6781696,0
6.862,0.281,-0.2151,1.1531,0.0999,0.0303,0.4597,0.2727,0.0096,0.277,849.9451,-4.5,28.2,-25.56,-4.151,10.271,-13.694,49.17437819,-121.6781696,0
6.863,0.281,-0.2151,1.1531,0.0999,0.0303,0.4597,-0.6434,1.4903,0.9587,849.9451,-4.5,28.2,-25.56,-4.151,10.271,-13.694,49.17437819,-121.6781696,0
6.896,0.281,-0.2151,1.1531,-0.3603,-1.3218,2.034,-0.6434,1.4903,0.9587,849.9451,-4.5,28.2,-25.56,-4.151,10.271,-13.694,49.17437819,-121.6781696,0
6.916,0.1764,-0.3084,0.7842,-0.3603,-1.3218,2.034,-0.6434,1.4903,0.9587,849.9451,-4.5,28.2,-25.56,-4.091,20.99,-12.677,49.17437819,-121.6781696,0
6.917,0.1764,-0.3084,0.7842,-0.3603,-1.3218,2.034,-0.6434,1.4903,0.9587,849.9451,-4.26,28.14,-25.5,-4.834,20.99,-12.677,49.17437819,-121.6781696,0
6.918,0.1764,-0.3084,0.7842,-0.3603,-1.3218,2.034,-1.1931,-1.2602,0.7531,849.9451,-4.26,28.14,-25.5,-4.834,20.99,-12.677,49.17437819,-121.6781696,0
6.937,0.1764,-0.3084,0.7842,-0.3603,-1.3218,2.034,-1.1931,-1.2602,0.7531,849.9656,-4.26,28.14,-25.5,-4.834,20.99,-12.677,49.17437819,-121.6781696,0
6.957,0.1764,-0.3084,0.7842,-1.6803,-1.2802,-1.3438,-1.1931,-1.2602,0.7531,849.9656,-4.26,28.14,-25.5,-4.834,20.99,-12.677,49.17437819,-121.6781696,0
6.977,0.3684,-0.3768,0.7827,-1.6803,-1.2802,-1.3438,-1.1931,-1.2602,0.7531,849.9656,-4.26,28.14,-25.5,-23.829,23.536,-25.206,49.17437819,-121.6781696,0
6.978,0.3684,-0.3768,0.7827,-1.6803,-1.2802,-1.3438,-1.1931,-1.2602,0.7531,849.9656,-3.84,28.14,-25.5,-24.869,23.536,-25.206,49.17437819,-121.6781696,0
6.98,0.3684,-0.3768,0.7827,-1.6803,-1.2802,-1.3438,-1.224,-1.2208,-0.0479,849.9656,-3.84,28.14,-25.5,-24.869,23.536,-25.206,49.17437819,-121.6781696,0
7.017,0.3684,-0.3768,0.7827,-0.4852,-1.1861,-0.8803,-1.224,-1.2208,-0.0479,849.9656,-3.84,28.14,-25.5,-24.869,23.536,-25.206,49.17437819,-121.6781696,0
7.038,0.3523,-0.3509,0.8579,-0.4852,-1.1861,-0.8803,-1.224,-1.2208,-0.0479,849.9656,-3.84,28.14,-25.5,-19.361,20.723,-22.324,49.17437819,-121.6781696,0
7.039,0.3523,-0.3509,0.8579,-0.4852,-1.1861,-0.8803,-1.224,-1.2208,-0.0479,849.9656,-3.42,28.2,-25.5,-20.367,20.723,-22.324,49.17437819,-121.6781696,0
7.04,0.3523,-0.3509,0.8579,-0.4852,-1.1861,-0.8803,-0.8064,0.5103,-0.0373,849.9656,-3.42,28.2,-25.5,-20.367,20.723,-22.324,49.17437819,-121.6781696,0
7.078,0.3523,-0.3509,0.8579,-0.3654,-0.5118,-0.1378,-0.8064,0.5103,-0.0373,849.9656,-3.42,28.2,-25.5,-20.367,20.723,-22.324,49.17437819,-121.6781696,0
7.098,0.3582,-0.4877,0.812,-0.3654,-0.5118,-0.1378,-0.8064,0.5103,-0.0373,849.9656,-3.42,28.2,-25.5,-29.202,28.79,-23.801,49.17437819,-121.6781696,0
7.099,0.3582,-0.4877,0.812,-0.3654,-0.5118,-0.1378,-0.8064,0.5103,-0.0373,849.9656,-3,28.44,-25.44,-29.803,28.79,-23.801,49.17437819,-121.6781696,0
7.101,0.3582,-0.4877,0.812,-0.3654,-0.5118,-0.1378,-0.0075,-0.6679,-0.0021,849.9656,-3,28.44,-25.44,-29.803,28.79,-23.801,49.17437819,-121.6781696,0
7.117,0.3582,-0.4877,0.812,-0.3654,-0.5118,-0.1378,-0.0075,-0.6679,-0.0021,849.9485,-3,28.44,-25.44,-29.803,28.79,-23.801,49.17437819,-121.6781696,0
7.119,0.3582,-0.4877,0.812,-0.3654,-0.5118,-0.1378,-0.0075,-0.6679,-0.0021,849.9485,-3,28.44,-25.44,-29.803,28.79,-23.801,49.17437819,-121.6781696,0
7.141,0.3582,-0.4877,0.812,-0.6437,-1.6643,-0.3618,-0.0075,-0.6679,-0.0021,849.9485,-3,28.44,-25.44,-29.803,28.79,-23.801,49.17437819,-121.6781696,0
7.157,0.3699,-0.3167,0.7842,-0.6437,-1.6643,-0.3618,-0.0075,-0.6679,-0.0021,849.9485,-3,28.44,-25.44,-23.886,20.065,-25.253,49.17437819,-121.6781696,0
7.159,0.3699,-0.3167,0.7842,-0.6437,-1.6643,-0.3618,-0.0075,-0.6679,-0.0021,849.9485,-2.58,28.74,-25.32,-24.293,20.065,-25.253,49.17437819,-121.6781696,0
7.162,0.3699,-0.3167,0.7842,-0.6437,-1.6643,-0.3618,-0.3515,1.7034,0.1896,849.9485,-2.58,28.74,-25.32,-24.293,20.065,-25.253,49.17437819,-121.6781696,0
7.198,0.3699,-0.3167,0.7842,0.3402,0.2332,-0.9319,-0.3515,1.7034,0.1896,849.9485,-2.58,28.74,-25.32,-24.293,20.065,-25.253,49.17437819,-121.6781696,0
7.225,0.321,-0.3978,0.8233,0.3402,0.2332,-0.9319,-0.3515,1.7034,0.1896,849.9485,-2.58,28.74,-25.32,-22.833,24.236,-21.303,49.17437819,-121.6781696,0
7.229,0.321,-0.3978,0.8233,0.3402,0.2332,-0.9319,-0.3515,1.7034,0.1896,849.9485,-2.04,29.04,-25.2,-23.684,24.236,-21.303,49.17437819,-121.6781696,0
7.232,0.321,-0.3978,0.8233,0.3402,0.2332,-0.9319,-0.4922,1.3412,0.147,849.9485,-2.04,29.04,-25.2,-23.684,24.236,-21.303,49.17437819,-121.6781696,0
7.257,0.321,-0.3978,0.8233,0.5587,-0.2575,-0.6626,-0.4922,1.3412,0.147,849.9485,-2.04,29.04,-25.2,-23.684,24.236,-21.303,49.17437819,-121.6781696,0
7.277,0.1036,-0.4598,0.9288,0.5587,-0.2575,-0.6626,-0.4922,1.3412,0.147,849.9485,-2.04,29.04,-25.2,-2.942,26.2,-6.364,49.17437819,-121.6781696,0
7.279,0.1036,-0.4598,0.9288,0.5587,-0.2575,-0.6626,-0.4922,1.3412,0.147,849.9485,-1.38,29.52,-25.02,-5.187,26.2,-6.364,49.17437819,-121.6781696,0
7.281,0.1036,-0.4598,0.9288,0.5587,-0.2575,-0.6626,-0.0948,0.5284,-0.0149,849.9485,-1.38,29.52,-25.02,-5.187,26.2,-6.364,49.17437819,-121.6781696,0
7.295,0.1036,-0.4598,0.9288,0.5587,-0.2575,-0.6626,-0.0948,0.5284,-0.0149,849.9177,-1.38,29.52,-25.02,-5.187,26.2,-6.364,49.17437819,-121.6781696,0
7.298,0.1036,-0.4598,0.9288,0.5587,-0.2575,-0.6626,-0.0948,0.5284,-0.0149,849.9177,-1.38,29.52,-25.02,-5.187,26.2,-6.364,49.17437819,-121.6781696,0
7.316,0.1036,-0.4598,0.9288,-1.1886,-0.7899,0.2987,-0.0948,0.5284,-0.0149,849.9177,-1.38,29.52,-25.02,-5.187,26.2,-6.364,49.17437819,-121.6781696,0
7.336,0.0943,-0.4901,0.8853,-1.1886,-0.7899,0.2987,-0.0948,0.5284,-0.0149,849.9177,-1.38,29.52,-25.02,-5.294,28.834,-6.08,49.17437819,-121.6781696,0
7.337,0.0943,-0.4901,0.8853,-1.1886,-0.7899,0.2987,-0.0948,0.5284,-0.0149,849.9177,-0.66,30.12,-24.9,-7.828,28.834,-6.08,49.17437819,-121.6781696,0
7.339,0.0943,-0.4901,0.8853,-1.1886,-0.7899,0.2987,-0.2205,0.6669,-0.2514,849.9177,-0.66,30.12,-24.9,-7.828,28.834,-6.08,49.17437819,-121.6781696,0
7.381,0.0943,-0.4901,0.8853,-0.9468,-0.96,-0.15,-0.2205,0.6669,-0.2514,849.9177,-0.66,30.12,-24.9,-7.828,28.834,-6.08,49.17437819,-121.6781696,0
7.399,0.0752,-0.5605,0.9244,-0.9468,-0.96,-0.15,-0.2205,0.6669,-0.2514,849.9177,-0.66,30.12,-24.9,-6.022,31.146,-4.654,49.17437819,-121.6781696,0
7.402,0.0752,-0.5605,0.9244,-0.9468,-0.96,-0.15,-0.2205,0.6669,-0.2514,849.9177,0.24,30.78,-24.72,-9.366,31.146,-4.654,49.17437819,-121.6781696,0
7.406,0.0752,-0.5605,0.9244,-0.9468,-0.96,-0.15,-0.5816,0.5177,0.2194,849.9177,0.24,30.78,-24.72,-9.366,31.146,-4.654,49.17437819,-121.6781696,0
7.438,0.0752,-0.5605,0.9244,-0.8233,-1.2608,0.3514,-0.5816,0.5177,0.2194,849.9177,0.24,30.78,-24.72,-9.366,31.146,-4.654,49.17437819,-121.6781696,0
7.463,0.0147,-0.5209,1.0182,-0.8233,-1.2608,0.3514,-0.5816,0.5177,0.2194,849.9177,0.24,30.78,-24.72,-2.113,27.092,-0.825,49.17437819,-121.6781696,0
7.464,0.0147,-0.5209,1.0182,-0.8233,-1.2608,0.3514,-0.5816,0.5177,0.2194,849.9177,1.14,31.56,-24.54,-5.04,27.092,-0.825,49.17437819,-121.6781696,0
7.466,0.0147,-0.5209,1.0182,-0.8233,-1.2608,0.3514,-0.6669,2.2392,0.6168,849.9177,1.14,31.56,-24.54,-5.04,27.092,-0.825,49.17437819,-121.6781696,0
7.476,0.0147,-0.5209,1.0182,-0.8233,-1.2608,0.3514,-0.6669,2.2392,0.6168,849.9919,1.14,31.56,-24.54,-5.04,27.092,-0.825,49.17437819,-121.6781696,0
7.478,0.0147,-0.5209,1.0182,-0.8233,-1.2608,0.3514,-0.6669,2.2392,0.6168,849.9919,1.14,31.56,-24.54,-5.04,27.092,-0.825,49.17437819,-121.6781696,0
7.499,0.0147,-0.5209,1.0182,-0.2123,-0.446,1.3566,-0.6669,2.2392,0.6168,849.9919,1.14,31.56,-24.54,-5.04,27.092,-0.825,49.17437819,-121.6781696,0
7.517,-0.1969,-0.5151,0.5692,-0.2123,-0.446,1.3566,-0.6669,2.2392,0.6168,849.9919,1.14,31.56,-24.54,38.7,40.537,19.084,49.17437819,-121.6781696,0
7.519,-0.1969,-0.5151,0.5692,-0.2123,-0.446,1.3566,-0.6669,2.2392,0.6168,849.9919,2.28,32.4,-24.18,31.766,40.537,19.084,49.17437819,-121.6781696,0
7.521,-0.1969,-0.5151,0.5692,-0.2123,-0.446,1.3566,-0.4229,2.6301,0.408,849.9919,2.28,32.4,-24.18,31.766,40.537,19.084,49.17437819,-121.6781696,0
7.558,-0.1969,-0.5151,0.5692,-0.7187,-0.1832,-2.8507,-0.4229,2.6301,0.408,849.9919,2.28,32.4,-24.18,31.766,40.537,19.084,49.17437819,-121.6781696,0
7.586,-0.1353,-0.4022,1.2977,-0.7187,-0.1832,-2.8507,-0.4229,2.6301,0.408,849.9919,2.28,32.4,-24.18,0.579,17.132,5.954,49.17437819,-121.6781696,0
7.589,-0.1353,-0.4022,1.2977,-0.7187,-0.1832,-2.8507,-0.4229,2.6301,0.408,849.9919,3.72,33.3,-23.82,-2.845,17.132,5.954,49.17437819,-121.6781696,0
7.591,-0.1353,-0.4022,1.2977,-0.7187,-0.1832,-2.8507,-0.1843,0.8756,0.4698,849.9919,3.72,33.3,-23.82,-2.845,17.132,5.954,49.17437819,-121.6781696,0
7.62,-0.1353,-0.4022,1.2977,0.2939,0.9883,4.3962,-0.1843,0.8756,0.4698,849.9919,3.72,33.3,-23.82,-2.845,17.132,5.954,49.17437819,-121.6781696,0
7.641,-0.3616,-0.6685,0.7715,0.2939,0.9883,4.3962,-0.1843,0.8756,0.4698,849.9919,3.72,33.3,-23.82,29.508,38.118,25.112,49.17437819,-121.6781696,0
7.655,-0.3616,-0.6685,0.7715,0.2939,0.9883,4.3962,-0.1843,0.8756,0.4698,849.9919,5.34,34.32,-23.34,21.988,38.118,25.112,49.17437819,-121.6781696,0
7.661,-0.3616,-0.6685,0.7715,0.2939,0.9883,4.3962,0.5305,2.7207,0.6541,849.9919,5.34,34.32,-23.34,21.988,38.118,25.112,49.17437819,-121.6781696,0
7.684,-0.3616,-0.6685,0.7715,0.2939,0.9883,4.3962,0.5305,2.7207,0.6541,849.9626,5.34,34.32,-23.34,21.988,38.118,25.112,49.17437819,-121.6781696,0
7.685,-0.3616,-0.6685,0.7715,0.2939,0.9883,4.3962,0.5305,2.7207,0.6541,849.9626,5.34,34.32,-23.34,21.988,38.118,25.112,49.17437819,-121.6781696,0
7.687,-0.3616,-0.6685,0.7715,-0.3834,-1.936,-0.4948,0.5305,2.7207,0.6541,849.9626,5.34,34.32,-23.34,21.988,38.118,25.112,49.17437819,-121.6781696,0
7.695,-0.3401,-0.5273,0.447,-0.3834,-1.936,-0.4948,0.5305,2.7207,0.6541,849.9626,5.34,34.32,-23.34,44.387,43.191,37.262,49.17437819,-121.6781696,0
7.697,-0.3401,-0.5273,0.447,-0.3834,-1.936,-0.4948,0.5305,2.7207,0.6541,849.9626,7.5,35.28,-22.8,37.546,43.191,37.262,49.17437819,-121.6781696,0
7.698,-0.3401,-0.5273,0.447,-0.3834,-1.936,-0.4948,0.2834,2.7942,1.3348,849.9626,7.5,35.28,-22.8,37.546,43.191,37.262,49.17437819,-121.6781696,0
7.743,-0.3401,-0.5273,0.447,1.4476,-1.0098,-3.1048,0.2834,2.7942,1.3348,849.9626,7.5,35.28,-22.8,37.546,43.191,37.262,49.17437819,-121.6781696,0
7.758,-0.559,-0.3592,0.4358,1.4476,-1.0098,-3.1048,0.2834,2.7942,1.3348,849.9626,7.5,35.28,-22.8,30.766,26.875,52.06,49.17437819,-121.6781696,0
7.76,-0.559,-0.3592,0.4358,1.4476,-1.0098,-3.1048,0.2834,2.7942,1.3348,849.9626,10.38,36.12,-21.96,26.009,26.875,52.06,49.17437819,-121.6781696,0
7.761,-0.559,-0.3592,0.4358,1.4476,-1.0098,-3.1048,-1.4296,1.9931,-0.0426,849.9626,10.38,36.12,-21.96,26.009,26.875,52.06,49.17437819,-121.6781696,0
7.799,-0.559,-0.3592,0.4358,0.3332,1.1964,-2.0662,-1.4296,1.9931,-0.0426,849.9626,10.38,36.12,-21.96,26.009,26.875,52.06,49.17437819,-121.6781696,0
7.82,-0.8917,-0.4462,0.6576,0.3332,1.1964,-2.0662,-1.4296,1.9931,-0.0426,849.9626,10.38,36.12,-21.96,24.285,21.934,53.592,49.17437819,-121.6781696,0
7.823,-0.8917,-0.4462,0.6576,0.3332,1.1964,-2.0662,-1.4296,1.9931,-0.0426,849.9626,13.5,36.96,-20.76,18.745,21.934,53.592,49.17437819,-121.6781696,0
7.827,-0.8917,-0.4462,0.6576,0.3332,1.1964,-2.0662,-0.4581,1.0951,0.0629,849.9626,13.5,36.96,-20.76,18.745,21.934,53.592,49.17437819,-121.6781696,0
7.836,-0.8917,-0.4462,0.6576,0.3332,1.1964,-2.0662,-0.4581,1.0951,0.0629,849.9736,13.5,36.96,-20.76,18.745,21.934,53.592,49.17437819,-121.6781696,0
7.838,-0.8917,-0.4462,0.6576,0.3332,1.1964,-2.0662,-0.4581,1.0951,0.0629,849.9736,13.5,36.96,-20.76,18.745,21.934,53.592,49.17437819,-121.6781696,0
7.857,-0.8917,-0.4462,0.6576,-2.5174,0.5104,0.6462,-0.4581,1.0951,0.0629,849.9736,13.5,36.96,-20.76,18.745,21.934,53.592,49.17437819,-121.6781696,0
7.884,-0.7569,-0.5918,0.3537,-2.5174,0.5104,0.6462,-0.4581,1.0951,0.0629,849.9736,13.5,36.96,-20.76,36.014,35.312,64.952,49.17437819,-121.6781696,0
7.889,-0.7569,-0.5918,0.3537,-2.5174,0.5104,0.6462,-0.4581,1.0951,0.0629,849.9736,16.5,37.74,-19.32,31.11,35.312,64.952,49.17437819,-121.6781696,0
7.895,-0.7569,-0.5918,0.3537,-2.5174,0.5104,0.6462,0.3515,0.6083,0.6924,849.9736,16.5,37.74,-19.32,31.11,35.312,64.952,49.17437819,-121.6781696,0
7.919,-0.7569,-0.5918,0.3537,-0.7843,-1.2834,-2.1712,0.3515,0.6083,0.6924,849.9736,16.5,37.74,-19.32,31.11,35.312,64.952,49.17437819,-121.6781696,0
7.942,-0.409,-0.3304,0.553,-0.7843,-1.2834,-2.1712,0.3515,0.6083,0.6924,849.9736,16.5,37.74,-19.32,-4.415,25.655,36.482,49.17437819,-121.6781696,0
7.947,-0.409,-0.3304,0.553,-0.7843,-1.2834,-2.1712,0.3515,0.6083,0.6924,849.9736,19.38,38.46,-17.76,-12.066,25.655,36.482,49.17437819,-121.6781696,0
7.958,-0.409,-0.3304,0.553,-0.7843,-1.2834,-2.1712,-0.5699,1.142,0.8682,849.9736,19.38,38.46,-17.76,-12.066,25.655,36.482,49.17437819,-121.6781696,0
7.982,-0.409,-0.3304,0.553,3.1003,1.0694,0.2146,-0.5699,1.142,0.8682,849.9736,19.38,38.46,-17.76,-12.066,25.655,36.482,49.17437819,-121.6781696,0
8.001,-0.686,-0.7056,0.6923,3.1003,1.0694,0.2146,-0.5699,1.142,0.8682,849.9736,19.38,38.46,-17.76,-4.592,35.904,44.738,49.17437819,-121.6781696,0
8.006,-0.686,-0.7056,0.6923,3.1003,1.0694,0.2146,-0.5699,1.142,0.8682,849.9736,22.38,39.12,-16.14,-16.092,35.904,44.738,49.17437819,-121.6781696,0
8.01,-0.686,-0.7056,0.6923,3.1003,1.0694,0.2146,-0.9406,1.4711,1.2879,849.9736,22.38,39.12,-16.14,-16.092,35.904,44.738,49.17437819,-121.6781696,0
8.021,-0.686,-0.7056,0.6923,3.1003,1.0694,0.2146,-0.9406,1.4711,1.2879,849.895,22.38,39.12,-16.14,-16.092,35.904,44.738,49.17437819,-121.6781696,0
8.024,-0.686,-0.7056,0.6923,3.1003,1.0694,0.2146,-0.9406,1.4711,1.2879,849.895,22.38,39.12,-16.14,-16.092,35.904,44.738,49.17437819,-121.6781696,0
8.037,-0.686,-0.7056,0.6923,0.8453,-2.6017,2.2805,-0.9406,1.4711,1.2879,849.895,22.38,39.12,-16.14,-16.092,35.904,44.738,49.17437819,-121.6781696,0
8.059,-0.8795,-0.3509,0.2672,0.8453,-2.6017,2.2805,-0.9406,1.4711,1.2879,849.895,22.38,39.12,-16.14,18.165,20.893,73.1,49.17437819,-121.6781696,0
8.062,-0.8795,-0.3509,0.2672,0.8453,-2.6017,2.2805,-0.9406,1.4711,1.2879,849.895,25.44,39.66,-14.4,13.358,20.893,73.1,49.17437819,-121.6781696,0
8.065,-0.8795,-0.3509,0.2672,0.8453,-2.6017,2.2805,-0.7265,0.2258,0.7052,849.895,25.44,39.66,-14.4,13.358,20.893,73.1,49.17437819,-121.6781696,0
8.099,-0.8795,-0.3509,0.2672,-0.6884,0.7982,-1.2957,-0.7265,0.2258,0.7052,849.895,25.44,39.66,-14.4,13.358,20.893,73.1,49.17437819,-121.6781696,0
8.124,-0.538,-0.4486,0.3024,-0.6884,0.7982,-1.2957,-0.7265,0.2258,0.7052,849.895,25.44,39.66,-14.4,0.336,36.015,60.66,49.17437819,-121.6781696,0
8.132,-0.538,-0.4486,0.3024,-0.6884,0.7982,-1.2957,-0.7265,0.2258,0.7052,849.895,28.62,40.02,-12.54,-12.38,36.015,60.66,49.17437819,-121.6781696,0
8.138,-0.538,-0.4486,0.3024,-0.6884,0.7982,-1.2957,0.1672,-1.5095,-0.0234,849.895,28.62,40.02,-12.54,-12.38,36.015,60.66,49.17437819,-121.6781696,0
8.155,-0.538,-0.4486,0.3024,2.3282,-0.1571,-1.5572,0.1672,-1.5095,-0.0234,849.895,28.62,40.02,-12.54,-12.38,36.015,60.66,49.17437819,-121.6781696,0
8.175,-0.7422,-0.5331,0.5452,2.3282,-0.1571,-1.5572,0.1672,-1.5095,-0.0234,849.895,28.62,40.02,-12.54,-19.453,30.067,53.699,49.17437819,-121.6781696,0
8.176,-0.7422,-0.5331,0.5452,2.3282,-0.1571,-1.5572,0.1672,-1.5095,-0.0234,849.895,31.8,40.38,-10.56,-28.532,30.067,53.699,49.17437819,-121.6781696,0
8.179,-0.7422,-0.5331,0.5452,2.3282,-0.1571,-1.5572,0.8171,-1.7353,-1.7311,849.895,31.8,40.38,-10.56,-28.532,30.067,53.699,49.17437819,-121.6781696,0
8.197,-0.7422,-0.5331,0.5452,2.3282,-0.1571,-1.5572,0.8171,-1.7353,-1.7311,849.9043,31.8,40.38,-10.56,-28.532,30.067,53.699,49.17437819,-121.6781696,0
8.201,-0.7422,-0.5331,0.5452,2.3282,-0.1571,-1.5572,0.8171,-1.7353,-1.7311,849.9043,31.8,40.38,-10.56,-28.532,30.067,53.699,49.17437819,-121.6781696,0
8.217,-0.7422,-0.5331,0.5452,-0.6293,-0.4192,-0.0354,0.8171,-1.7353,-1.7311,849.9043,31.8,40.38,-10.56,-28.532,30.067,53.699,49.17437819,-121.6781696,0
8.243,-0.9367,-0.4642,0.3801,-0.6293,-0.4192,-0.0354,0.8171,-1.7353,-1.7311,849.9043,31.8,40.38,-10.56,-5.455,24.667,67.914,49.17437819,-121.6781696,0
8.249,-0.9367,-0.4642,0.3801,-0.6293,-0.4192,-0.0354,0.8171,-1.7353,-1.7311,849.9043,34.8,40.62,-8.7,-12.811,24.667,67.914,49.17437819,-121.6781696,0
8.256,-0.9367,-0.4642,0.3801,-0.6293,-0.4192,-0.0354,0.7862,-0.8991,-0.6914,849.9043,34.8,40.62,-8.7,-12.811,24.667,67.914,49.17437819,-121.6781696,0
8.297,-0.9367,-0.4642,0.3801,-3.0256,0.267,-2.1999,0.7862,-0.8991,-0.6914,849.9043,34.8,40.62,-8.7,-12.811,24.667,67.914,49.17437819,-121.6781696,0
8.301,-0.7275,-0.3587,0.2144,-3.0256,0.267,-2.1999,0.7862,-0.8991,-0.6914,849.9043,34.8,40.62,-8.7,-3.993,25.31,73.577,49.17437819,-121.6781696,0
8.303,-0.7275,-0.3587,0.2144,-3.0256,0.267,-2.1999,0.7862,-0.8991,-0.6914,849.9043,37.62,40.8,-6.96,-10.873,25.31,73.577,49.17437819,-121.6781696,0
8.308,-0.7275,-0.3587,0.2144,-3.0256,0.267,-2.1999,-0.1672,0.2141,0.261,849.9043,37.62,40.8,-6.96,-10.873,25.31,73.577,49.17437819,-121.6781696,0
8.335,-0.7275,-0.3587,0.2144,-0.6852,1.2475,-3.5511,-0.1672,0.2141,0.261,849.9043,37.62,40.8,-6.96,-10.873,25.31,73.577,49.17437819,-121.6781696,0
8.365,-0.7212,-0.5434,0.4118,-0.6852,1.2475,-3.5511,-0.1672,0.2141,0.261,849.9043,37.62,40.8,-6.96,-41.281,33.197,60.271,49.17437819,-121.6781696,0
8.372,-0.7212,-0.5434,0.4118,-0.6852,1.2475,-3.5511,-0.1672,0.2141,0.261,849.9043,40.26,40.86,-5.4,-48.355,33.197,60.271,49.17437819,-121.6781696,0
8.381,-0.7212,-0.5434,0.4118,-0.6852,1.2475,-3.5511,-0.5518,-0.7968,-0.3505,849.9043,40.26,40.86,-5.4,-48.355,33.197,60.271,49.17437819,-121.6781696,0
8.383,-0.7212,-0.5434,0.4118,-0.6852,1.2475,-3.5511,-0.5518,-0.7968,-0.3505,850.0244,40.26,40.86,-5.4,-48.355,33.197,60.271,49.17437819,-121.6781696,0
8.385,-0.7212,-0.5434,0.4118,-0.6852,1.2475,-3.5511,-0.5518,-0.7968,-0.3505,850.0244,40.26,40.86,-5.4,-48.355,33.197,60.271,49.17437819,-121.6781696,0
8.394,-0.7212,-0.5434,0.4118,-0.796,-0.2353,-1.5253,-0.5518,-0.7968,-0.3505,850.0244,40.26,40.86,-5.4,-48.355,33.197,60.271,49.17437819,-121.6781696,0
8.414,-0.6117,-0.6387,0.5027,-0.796,-0.2353,-1.5253,-0.5518,-0.7968,-0.3505,850.0244,40.26,40.86,-5.4,-64.673,38.89,50.587,49.17437819,-121.6781696,0
8.416,-0.6117,-0.6387,0.5027,-0.796,-0.2353,-1.5253,-0.5518,-0.7968,-0.3505,850.0244,42.84,40.86,-3.9,-68.619,38.89,50.587,49.17437819,-121.6781696,0
8.418,-0.6117,-0.6387,0.5027,-0.796,-0.2353,-1.5253,-0.9161,0.2205,-0.1129,850.0244,42.84,40.86,-3.9,-68.619,38.89,50.587,49.17437819,-121.6781696,0
8.458,-0.6117,-0.6387,0.5027,0.1467,-0.7791,-0.4042,-0.9161,0.2205,-0.1129,850.0244,42.84,40.86,-3.9,-68.619,38.89,50.587,49.17437819,-121.6781696,0
8.482,-0.6499,-0.6553,0.5902,0.1467,-0.7791,-0.4042,-0.9161,0.2205,-0.1129,850.0244,42.84,40.86,-3.9,-64.782,36.74,47.755,49.17437819,-121.6781696,0
8.486,-0.6499,-0.6553,0.5902,0.1467,-0.7791,-0.4042,-0.9161,0.2205,-0.1129,850.0244,45.06,40.86,-2.52,-67.499,36.74,47.755,49.17437819,-121.6781696,0
8.491,-0.6499,-0.6553,0.5902,0.1467,-0.7791,-0.4042,-0.0341,-0.5774,-0.0426,850.0244,45.06,40.86,-2.52,-67.499,36.74,47.755,49.17437819,-121.6781696,0
8.514,-0.6499,-0.6553,0.5902,-0.4742,-0.8815,0.2403,-0.0341,-0.5774,-0.0426,850.0244,45.06,40.86,-2.52,-67.499,36.74,47.755,49.17437819,-121.6781696,0
8.534,-0.6391,-0.5322,0.425,-0.4742,-0.8815,0.2403,-0.0341,-0.5774,-0.0426,850.0244,45.06,40.86,-2.52,-63.479,34.735,56.374,49.17437819,-121.6781696,0
8.537,-0.6391,-0.5322,0.425,-0.4742,-0.8815,0.2403,-0.0341,-0.5774,-0.0426,850.0244,46.98,40.74,-1.2,-66.626,34.735,56.374,49.17437819,-121.6781696,0
8.539,-0.6391,-0.5322,0.425,-0.4742,-0.8815,0.2403,-0.18,0.1523,0.1694,850.0244,46.98,40.74,-1.2,-66.626,34.735,56.374,49.17437819,-121.6781696,0
8.553,-0.6391,-0.5322,0.425,-0.4742,-0.8815,0.2403,-0.18,0.1523,0.1694,849.96,46.98,40.74,-1.2,-66.626,34.735,56.374,49.17437819,-121.6781696,0
8.555,-0.6391,-0.5322,0.425,-0.4742,-0.8815,0.2403,-0.18,0.1523,0.1694,849.96,46.98,40.74,-1.2,-66.626,34.735,56.374,49.17437819,-121.6781696,0
8.579,-0.6391,-0.5322,0.425,-0.2753,0.3499,-1.2518,-0.18,0.1523,0.1694,849.96,46.98,40.74,-1.2,-66.626,34.735,56.374,49.17437819,-121.6781696,0
8.6,-0.6161,-0.5356,0.4275,-0.2753,0.3499,-1.2518,-0.18,0.1523,0.1694,849.96,46.98,40.74,-1.2,-68.191,35.534,55.247,49.17437819,-121.6781696,0
8.605,-0.6161,-0.5356,0.4275,-0.2753,0.3499,-1.2518,-0.18,0.1523,0.1694,849.96,48.6,40.56,-0.06,-70.525,35.534,55.247,49.17437819,-121.6781696,0
8.611,-0.6161,-0.5356,0.4275,-0.2753,0.3499,-1.2518,-0.4048,-0.0916,-0.2802,849.96,48.6,40.56,-0.06,-70.525,35.534,55.247,49.17437819,-121.6781696,0
8.634,-0.6161,-0.5356,0.4275,-0.15,0.53,-1.1123,-0.4048,-0.0916,-0.2802,849.96,48.6,40.56,-0.06,-70.525,35.534,55.247,49.17437819,-121.6781696,0
8.654,-0.578,-0.7002,0.3957,-0.15,0.53,-1.1123,-0.4048,-0.0916,-0.2802,849.96,48.6,40.56,-0.06,-89.352,44.989,55.605,49.17437819,-121.6781696,0
8.657,-0.578,-0.7002,0.3957,-0.15,0.53,-1.1123,-0.4048,-0.0916,-0.2802,849.96,49.62,40.56,1.08,-89.663,44.989,55.605,49.17437819,-121.6781696,0
8.659,-0.578,-0.7002,0.3957,-0.15,0.53,-1.1123,-0.4772,-0.4922,-0.0671,849.96,49.62,40.56,1.08,-89.663,44.989,55.605,49.17437819,-121.6781696,0
8.703,-0.578,-0.7002,0.3957,0.0818,-0.9093,-1.3859,-0.4772,-0.4922,-0.0671,849.96,49.62,40.56,1.08,-89.663,44.989,55.605,49.17437819,-121.6781696,0
8.719,-0.624,-0.7032,0.4719,0.0818,-0.9093,-1.3859,-0.4772,-0.4922,-0.0671,849.96,49.62,40.56,1.08,-82.331,41.95,52.898,49.17437819,-121.6781696,0
8.722,-0.624,-0.7032,0.4719,0.0818,-0.9093,-1.3859,-0.4772,-0.4922,-0.0671,849.96,49.86,40.74,1.86,-81.944,41.95,52.898,49.17437819,-121.6781696,0
8.726,-0.624,-0.7032,0.4719,0.0818,-0.9093,-1.3859,-0.4048,-0.1481,-0.7329,849.96,49.86,40.74,1.86,-81.944,41.95,52.898,49.17437819,-121.6781696,0
8.734,-0.624,-0.7032,0.4719,0.0818,-0.9093,-1.3859,-0.4048,-0.1481,-0.7329,849.9863,49.86,40.74,1.86,-81.944,41.95,52.898,49.17437819,-121.6781696,0
8.736,-0.624,-0.7032,0.4719,0.0818,-0.9093,-1.3859,-0.4048,-0.1481,-0.7329,849.9863,49.86,40.74,1.86,-81.944,41.95,52.898,49.17437819,-121.6781696,0
8.754,-0.624,-0.7032,0.4719,-0.6591,-0.5447,-0.4866,-0.4048,-0.1481,-0.7329,849.9863,49.86,40.74,1.86,-81.944,41.95,52.898,49.17437819,-121.6781696,0
8.773,-0.3371,-0.5688,0.3039,-0.6591,-0.5447,-0.4866,-0.4048,-0.1481,-0.7329,849.9863,49.86,40.74,1.86,-94.224,51.413,47.973,49.17437819,-121.6781696,0
8.775,-0.3371,-0.5688,0.3039,-0.6591,-0.5447,-0.4866,-0.4048,-0.1481,-0.7329,849.9863,49.8,40.98,2.34,-93.478,51.413,47.973,49.17437819,-121.6781696,0
8.778,-0.3371,-0.5688,0.3039,-0.6591,-0.5447,-0.4866,-0.6775,-0.7723,-0.7947,849.9863,49.8,40.98,2.34,-93.478,51.413,47.973,49.17437819,-121.6781696,0
8.817,-0.3371,-0.5688,0.3039,1.7029,1.2597,-1.9616,-0.6775,-0.7723,-0.7947,849.9863,49.8,40.98,2.34,-93.478,51.413,47.973,49.17437819,-121.6781696,0
8.839,-0.4891,-0.5331,0.2716,1.7029,1.2597,-1.9616,-0.6775,-0.7723,-0.7947,849.9863,49.8,40.98,2.34,-89.093,43.62,60.956,49.17437819,-121.6781696,0
8.853,-0.4891,-0.5331,0.2716,1.7029,1.2597,-1.9616,-0.6775,-0.7723,-0.7947,849.9863,49.56,41.52,2.7,-87.678,43.62,60.956,49.17437819,-121.6781696,0
8.861,-0.4891,-0.5331,0.2716,1.7029,1.2597,-1.9616,-0.6285,-0.9662,-0.9161,849.9863,49.56,41.52,2.7,-87.678,43.62,60.956,49.17437819,-121.6781696,0
8.88,-0.4891,-0.5331,0.2716,-0.4371,2.078,-2.2234,-0.6285,-0.9662,-0.9161,849.9863,49.56,41.52,2.7,-87.678,43.62,60.956,49.17437819,-121.6781696,0
8.898,-0.3411,-0.8815,0.7153,-0.4371,2.078,-2.2234,-0.6285,-0.9662,-0.9161,849.9863,49.56,41.52,2.7,-73.373,48.047,25.493,49.17437819,-121.6781696,0
8.903,-0.3411,-0.8815,0.7153,-0.4371,2.078,-2.2234,-0.6285,-0.9662,-0.9161,849.9863,48.96,42.12,3,-72.317,48.047,25.493,49.17437819,-121.6781696,0
8.907,-0.3411,-0.8815,0.7153,-0.4371,2.078,-2.2234,1.0557,-0.5614,-1.4317,849.9863,48.96,42.12,3,-72.317,48.047,25.493,49.17437819,-121.6781696,0
8.923,-0.3411,-0.8815,0.7153,-0.4371,2.078,-2.2234,1.0557,-0.5614,-1.4317,849.9751,48.96,42.12,3,-72.317,48.047,25.493,49.17437819,-121.6781696,0
8.927,-0.3411,-0.8815,0.7153,-0.4371,2.078,-2.2234,1.0557,-0.5614,-1.4317,849.9751,48.96,42.12,3,-72.317,48.047,25.493,49.17437819,-121.6781696,0
8.941,-0.3411,-0.8815,0.7153,0.5689,-1.2409,1.8966,1.0557,-0.5614,-1.4317,849.9751,48.96,42.12,3,-72.317,48.047,25.493,49.17437819,-121.6781696,0
8.956,-0.388,-0.7848,0.3522,0.5689,-1.2409,1.8966,1.0557,-0.5614,-1.4317,849.9751,48.96,42.12,3,-98.228,56.269,47.764,49.17437819,-121.6781696,0
8.96,-0.388,-0.7848,0.3522,0.5689,-1.2409,1.8966,1.0557,-0.5614,-1.4317,849.9751,47.94,42.9,3.3,-96.339,56.269,47.764,49.17437819,-121.6781696,0
8.963,-0.388,-0.7848,0.3522,0.5689,-1.2409,1.8966,0.7755,1.1249,-0.7105,849.9751,47.94,42.9,3.3,-96.339,56.269,47.764,49.17437819,-121.6781696,0
8.997,-0.388,-0.7848,0.3522,-0.2828,-0.4277,-2.119,0.7755,1.1249,-0.7105,849.9751,47.94,42.9,3.3,-96.339,56.269,47.764,49.17437819,-121.6781696,0
9.018,-0.3381,-0.6963,0.6801,-0.2828,-0.4277,-2.119,0.7755,1.1249,-0.7105,849.9751,47.94,42.9,3.3,-66.618,42.516,26.435,49.17437819,-121.6781696,0
9.024,-0.3381,-0.6963,0.6801,-0.2828,-0.4277,-2.119,0.7755,1.1249,-0.7105,849.9751,46.38,43.86,3.3,-64.649,42.516,26.435,49.17437819,-121.6781696,0
9.029,-0.3381,-0.6963,0.6801,-0.2828,-0.4277,-2.119,0.5848,0.9928,-0.8341,849.9751,46.38,43.86,3.3,-64.649,42.516,26.435,49.17437819,-121.6781696,0
9.055,-0.3381,-0.6963,0.6801,0.1779,0.4072,1.0356,0.5848,0.9928,-0.8341,849.9751,46.38,43.86,3.3,-64.649,42.516,26.435,49.17437819,-121.6781696,0
9.074,-0.2697,-0.8742,0.4319,0.1779,0.4072,1.0356,0.5848,0.9928,-0.8341,849.9751,46.38,43.86,3.3,-85.457,59.781,31.986,49.17437819,-121.6781696,0
9.076,-0.2697,-0.8742,0.4319,0.1779,0.4072,1.0356,0.5848,0.9928,-0.8341,849.9751,44.16,45,2.76,-83.465,59.781,31.986,49.17437819,-121.6781696,0
9.078,-0.2697,-0.8742,0.4319,0.1779,0.4072,1.0356,0.1981,0.3547,-0.7862,849.9751,44.16,45,2.76,-83.465,59.781,31.986,49.17437819,-121.6781696,0
9.096,-0.2697,-0.8742,0.4319,0.1779,0.4072,1.0356,0.1981,0.3547,-0.7862,850.1956,44.16,45,2.76,-83.465,59.781,31.986,49.17437819,-121.6781696,0
9.103,-0.2697,-0.8742,0.4319,0.1779,0.4072,1.0356,0.1981,0.3547,-0.7862,850.1956,44.16,45,2.76,-83.465,59.781,31.986,49.17437819,-121.6781696,0
9.114,-0.2697,-0.8742,0.4319,0.6577,-1.2831,-1.4437,0.1981,0.3547,-0.7862,850.1956,44.16,45,2.76,-83.465,59.781,31.986,49.17437819,-121.6781696,0
9.135,-0.4446,-0.7051,0.4353,0.6577,-1.2831,-1.4437,0.1981,0.3547,-0.7862,850.1956,44.16,45,2.76,-77.042,48.573,45.608,49.17437819,-121.6781696,0
9.139,-0.4446,-0.7051,0.4353,0.6577,-1.2831,-1.4437,0.1981,0.3547,-0.7862,850.1956,41.58,46.02,2.04,-73.167,48.573,45.608,49.17437819,-121.6781696,0
9.143,-0.4446,-0.7051,0.4353,0.6577,-1.2831,-1.4437,0.2727,0.6594,-0.2386,850.1956,41.58,46.02,2.04,-73.167,48.573,45.608,49.17437819,-121.6781696,0
9.176,-0.4446,-0.7051,0.4353,-0.8293,0.413,-1.2197,0.2727,0.6594,-0.2386,850.1956,41.58,46.02,2.04,-73.167,48.573,45.608,49.17437819,-121.6781696,0
9.203,-0.4373,-0.9372,0.3483,-0.8293,0.413,-1.2197,0.2727,0.6594,-0.2386,850.1956,41.58,46.02,2.04,-96.769,59.183,51.462,49.17437819,-121.6781696,0
9.207,-0.4373,-0.9372,0.3483,-0.8293,0.413,-1.2197,0.2727,0.6594,-0.2386,850.1956,38.7,46.98,1.2,-92.941,59.183,51.462,49.17437819,-121.6781696,0
9.211,-0.4373,-0.9372,0.3483,-0.8293,0.413,-1.2197,-0.4027,1.0791,0.1651,850.1956,38.7,46.98,1.2,-92.941,59.183,51.462,49.17437819,-121.6781696,0
9.236,-0.4373,-0.9372,0.3483,-0.7892,-1.5062,-1.5849,-0.4027,1.0791,0.1651,850.1956,38.7,46.98,1.2,-92.941,59.183,51.462,49.17437819,-121.6781696,0
9.259,-0.3327,-0.8053,0.4929,-0.7892,-1.5062,-1.5849,-0.4027,1.0791,0.1651,850.1956,38.7,46.98,1.2,-70.973,53.553,34.02,49.17437819,-121.6781696,0
9.264,-0.3327,-0.8053,0.4929,-0.7892,-1.5062,-1.5849,-0.4027,1.0791,0.1651,850.1956,35.7,47.76,0.42,-67.119,53.553,34.02,49.17437819,-121.6781696,0
9.269,-0.3327,-0.8053,0.4929,-0.7892,-1.5062,-1.5849,-0.8192,0.5039,1.0205,850.1956,35.7,47.76,0.42,-67.119,53.553,34.02,49.17437819,-121.6781696,0
9.276,-0.3327,-0.8053,0.4929,-0.7892,-1.5062,-1.5849,-0.8192,0.5039,1.0205,850.2629,35.7,47.76,0.42,-67.119,53.553,34.02,49.17437819,-121.6781696,0
9.284,-0.3327,-0.8053,0.4929,-0.7892,-1.5062,-1.5849,-0.8192,0.5039,1.0205,850.2629,35.7,47.76,0.42,-67.119,53.553,34.02,49.17437819,-121.6781696,0
9.296,-0.3327,-0.8053,0.4929,0.7439,-0.1546,0.3291,-0.8192,0.5039,1.0205,850.2629,35.7,47.76,0.42,-67.119,53.553,34.02,49.17437819,-121.6781696,0
9.312,-0.5145,-0.7555,0.2887,0.7439,-0.1546,0.3291,-0.8192,0.5039,1.0205,850.2629,35.7,47.76,0.42,-74.278,52.012,60.702,49.17437819,-121.6781696,0
9.314,-0.5145,-0.7555,0.2887,0.7439,-0.1546,0.3291,-0.8192,0.5039,1.0205,850.2629,32.64,48.6,-0.3,-64.889,52.012,60.702,49.17437819,-121.6781696,0
9.319,-0.5145,-0.7555,0.2887,0.7439,-0.1546,0.3291,-0.4836,0.147,-0.0682,850.2629,32.64,48.6,-0.3,-64.889,52.012,60.702,49.17437819,-121.6781696,0
9.353,-0.5145,-0.7555,0.2887,-0.8653,0.56,-1.0831,-0.4836,0.147,-0.0682,850.2629,32.64,48.6,-0.3,-64.889,52.012,60.702,49.17437819,-121.6781696,0
9.38,-0.4456,-0.8126,0.4744,-0.8653,0.56,-1.0831,-0.4836,0.147,-0.0682,850.2629,32.64,48.6,-0.3,-61.569,51.308,43.209,49.17437819,-121.6781696,0
9.385,-0.4456,-0.8126,0.4744,-0.8653,0.56,-1.0831,-0.4836,0.147,-0.0682,850.2629,29.64,49.38,-0.96,-55.337,51.308,43.209,49.17437819,-121.6781696,0
9.391,-0.4456,-0.8126,0.4744,-0.8653,0.56,-1.0831,0.1992,-0.1374,-0.1044,850.2629,29.64,49.38,-0.96,-55.337,51.308,43.209,49.17437819,-121.6781696,0
9.413,-0.4456,-0.8126,0.4744,-0.2258,0.0266,0.7533,0.1992,-0.1374,-0.1044,850.2629,29.64,49.38,-0.96,-55.337,51.308,43.209,49.17437819,-121.6781696,0
9.435,-0.4554,-0.7154,0.4597,-0.2258,0.0266,0.7533,0.1992,-0.1374,-0.1044,850.2629,29.64,49.38,-0.96,-49.923,47.87,44.728,49.17437819,-121.6781696,0
9.439,-0.4554,-0.7154,0.4597,-0.2258,0.0266,0.7533,0.1992,-0.1374,-0.1044,850.2629,26.7,50.1,-1.62,-43.452,47.87,44.728,49.17437819,-121.6781696,0
9.443,-0.4554,-0.7154,0.4597,-0.2258,0.0266,0.7533,-0.2056,-0.1619,-0.0469,850.2629,26.7,50.1,-1.62,-43.452,47.87,44.728,49.17437819,-121.6781696,0
9.452,-0.4554,-0.7154,0.4597,-0.2258,0.0266,0.7533,-0.2056,-0.1619,-0.0469,850.1182,26.7,50.1,-1.62,-43.452,47.87,44.728,49.17437819,-121.6781696,0
9.454,-0.4554,-0.7154,0.4597,-0.2258,0.0266,0.7533,-0.2056,-0.1619,-0.0469,850.1182,26.7,50.1,-1.62,-43.452,47.87,44.728,49.17437819,-121.6781696,0
9.472,-0.4554,-0.7154,0.4597,-0.3502,1.0068,0.6357,-0.2056,-0.1619,-0.0469,850.1182,26.7,50.1,-1.62,-43.452,47.87,44.728,49.17437819,-121.6781696,0
9.497,-0.4725,-0.838,0.3605,-0.3502,1.0068,0.6357,-0.2056,-0.1619,-0.0469,850.1182,26.7,50.1,-1.62,-53.913,54.656,52.654,49.17437819,-121.6781696,0
9.502,-0.4725,-0.838,0.3605,-0.3502,1.0068,0.6357,-0.2056,-0.1619,-0.0469,850.1182,23.82,50.76,-2.22,-44.698,54.656,52.654,49.17437819,-121.6781696,0
9.506,-0.4725,-0.838,0.3605,-0.3502,1.0068,0.6357,-0.6306,-0.2376,0.1012,850.1182,23.82,50.76,-2.22,-44.698,54.656,52.654,49.17437819,-121.6781696,0
9.535,-0.4725,-0.838,0.3605,-0.5067,-0.0993,-0.1189,-0.6306,-0.2376,0.1012,850.1182,23.82,50.76,-2.22,-44.698,54.656,52.654,49.17437819,-121.6781696,0
9.555,-0.4002,-0.8693,0.3674,-0.5067,-0.0993,-0.1189,-0.6306,-0.2376,0.1012,850.1182,23.82,50.76,-2.22,-53.407,57.998,47.447,49.17437819,-121.6781696,0
9.56,-0.4002,-0.8693,0.3674,-0.5067,-0.0993,-0.1189,-0.6306,-0.2376,0.1012,850.1182,20.94,51.3,-2.82,-44.059,57.998,47.447,49.17437819,-121.6781696,0
9.565,-0.4002,-0.8693,0.3674,-0.5067,-0.0993,-0.1189,-0.6669,-0.2429,0.1119,850.1182,20.94,51.3,-2.82,-44.059,57.998,47.447,49.17437819,-121.6781696,0
9.598,-0.4002,-0.8693,0.3674,0.1902,-0.2867,0.2106,-0.6669,-0.2429,0.1119,850.1182,20.94,51.3,-2.82,-44.059,57.998,47.447,49.17437819,-121.6781696,0
9.614,-0.3029,-0.9143,0.3425,0.1902,-0.2867,0.2106,-0.6669,-0.2429,0.1119,850.1182,20.94,51.3,-2.82,-57.956,63.43,41.496,49.17437819,-121.6781696,0
9.62,-0.3029,-0.9143,0.3425,0.1902,-0.2867,0.2106,-0.6669,-0.2429,0.1119,850.1182,18.24,51.84,-3.42,-48.486,63.43,41.496,49.17437819,-121.6781696,0
9.625,-0.3029,-0.9143,0.3425,0.1902,-0.2867,0.2106,-0.4463,-0.0692,-0.0629,850.1182,18.24,51.84,-3.42,-48.486,63.43,41.496,49.17437819,-121.6781696,0
9.634,-0.3029,-0.9143,0.3425,0.1902,-0.2867,0.2106,-0.4463,-0.0692,-0.0629,850.1362,18.24,51.84,-3.42,-48.486,63.43,41.496,49.17437819,-121.6781696,0
9.638,-0.3029,-0.9143,0.3425,0.1902,-0.2867,0.2106,-0.4463,-0.0692,-0.0629,850.1362,18.24,51.84,-3.42,-48.486,63.43,41.496,49.17437819,-121.6781696,0
9.651,-0.3029,-0.9143,0.3425,1.0047,-0.565,0.2081,-0.4463,-0.0692,-0.0629,850.1362,18.24,51.84,-3.42,-48.486,63.43,41.496,49.17437819,-121.6781696,0
9.673,-0.237,-0.8507,0.3498,1.0047,-0.565,0.2081,-0.4463,-0.0692,-0.0629,850.1362,18.24,51.84,-3.42,-49.248,63.59,34.117,49.17437819,-121.6781696,0
9.679,-0.237,-0.8507,0.3498,1.0047,-0.565,0.2081,-0.4463,-0.0692,-0.0629,850.1362,15.54,52.26,-4.02,-40.422,63.59,34.117,49.17437819,-121.6781696,0
9.683,-0.237,-0.8507,0.3498,1.0047,-0.565,0.2081,-0.0607,0.2056,-0.2024,850.1362,15.54,52.26,-4.02,-40.422,63.59,34.117,49.17437819,-121.6781696,0
9.714,-0.237,-0.8507,0.3498,1.4554,0.1724,0.3481,-0.0607,0.2056,-0.2024,850.1362,15.54,52.26,-4.02,-40.422,63.59,34.117,49.17437819,-121.6781696,0
9.733,-0.324,-0.7809,0.2828,1.4554,0.1724,0.3481,-0.0607,0.2056,-0.2024,850.1362,15.54,52.26,-4.02,-29.638,61.157,48.875,49.17437819,-121.6781696,0
9.739,-0.324,-0.7809,0.2828,1.4554,0.1724,0.3481,-0.0607,0.2056,-0.2024,850.1362,12.96,52.62,-4.5,-19.825,61.157,48.875,49.17437819,-121.6781696,0
9.742,-0.324,-0.7809,0.2828,1.4554,0.1724,0.3481,-0.0735,0.425,-0.4698,850.1362,12.96,52.62,-4.5,-19.825,61.157,48.875,49.17437819,-121.6781696,0
9.773,-0.324,-0.7809,0.2828,0.4393,0.9581,-0.2226,-0.0735,0.425,-0.4698,850.1362,12.96,52.62,-4.5,-19.825,61.157,48.875,49.17437819,-121.6781696,0
9.794,-0.4134,-0.9216,0.2115,0.4393,0.9581,-0.2226,-0.0735,0.425,-0.4698,850.1362,12.96,52.62,-4.5,-9.334,63.259,62.902,49.17437819,-121.6781696,0
9.802,-0.4134,-0.9216,0.2115,0.4393,0.9581,-0.2226,-0.0735,0.425,-0.4698,850.1362,10.5,52.74,-4.86,-1.949,63.259,62.902,49.17437819,-121.6781696,0
9.807,-0.4134,-0.9216,0.2115,0.4393,0.9581,-0.2226,-0.2855,0.5369,-0.375,850.1362,10.5,52.74,-4.86,-1.949,63.259,62.902,49.17437819,-121.6781696,0
9.823,-0.4134,-0.9216,0.2115,0.4393,0.9581,-0.2226,-0.2855,0.5369,-0.375,850.2065,10.5,52.74,-4.86,-1.949,63.259,62.902,49.17437819,-121.6781696,0
9.824,-0.4134,-0.9216,0.2115,0.4393,0.9581,-0.2226,-0.2855,0.5369,-0.375,850.2065,10.5,52.74,-4.86,-1.949,63.259,62.902,49.17437819,-121.6781696,0
9.831,-0.4134,-0.9216,0.2115,-0.5664,-0.2803,-0.6557,-0.2855,0.5369,-0.375,850.2065,10.5,52.74,-4.86,-1.949,63.259,62.902,49.17437819,-121.6781696,0
9.851,-0.3591,-0.7711,0.2789,-0.5664,-0.2803,-0.6557,-0.2855,0.5369,-0.375,850.2065,10.5,52.74,-4.86,-8.664,59.471,52.163,49.17437819,-121.6781696,0
9.852,-0.3591,-0.7711,0.2789,-0.5664,-0.2803,-0.6557,-0.2855,0.5369,-0.375,850.2065,8.34,52.74,-5.16,-3.239,59.471,52.163,49.17437819,-121.6781696,0
9.858,-0.3591,-0.7711,0.2789,-0.5664,-0.2803,-0.6557,-0.3004,0.7031,-0.2908,850.2065,8.34,52.74,-5.16,-3.239,59.471,52.163,49.17437819,-121.6781696,0
9.892,-0.3591,-0.7711,0.2789,-0.0588,1.2975,0.3259,-0.3004,0.7031,-0.2908,850.2065,8.34,52.74,-5.16,-3.239,59.471,52.163,49.17437819,-121.6781696,0
9.922,-0.3098,-0.9314,0.3967,-0.0588,1.2975,0.3259,-0.3004,0.7031,-0.2908,850.2065,8.34,52.74,-5.16,-11.314,61.613,37.987,49.17437819,-121.6781696,0
9.928,-0.3098,-0.9314,0.3967,-0.0588,1.2975,0.3259,-0.3004,0.7031,-0.2908,850.2065,6.36,52.56,-5.46,-5.315,61.613,37.987,49.17437819,-121.6781696,0
9.942,-0.3098,-0.9314,0.3967,-0.0588,1.2975,0.3259,-0.0905,0.9683,-0.1917,850.2065,6.36,52.56,-5.46,-5.315,61.613,37.987,49.17437819,-121.6781696,0
9.95,-0.3098,-0.9314,0.3967,0.3959,-0.2308,1.5971,-0.0905,0.9683,-0.1917,850.2065,6.36,52.56,-5.46,-5.315,61.613,37.987,49.17437819,-121.6781696,0
9.97,-0.5556,-1.0652,0.1827,0.3959,-0.2308,1.5971,-0.0905,0.9683,-0.1917,850.2065,6.36,52.56,-5.46,9.812,61.233,71.798,49.17437819,-121.6781696,0
9.972,-0.5556,-1.0652,0.1827,0.3959,-0.2308,1.5971,-0.0905,0.9683,-0.1917,850.2065,4.86,52.26,-5.58,10.937,61.233,71.798,49.17437819,-121.6781696,0
9.974,-0.5556,-1.0652,0.1827,0.3959,-0.2308,1.5971,0.179,0.8373,-0.2077,850.2065,4.86,52.26,-5.58,10.937,61.233,71.798,49.17437819,-121.6781696,0
9.991,-0.5556,-1.0652,0.1827,0.3959,-0.2308,1.5971,0.179,0.8373,-0.2077,850.1484,4.86,52.26,-5.58,10.937,61.233,71.798,49.17437819,-121.6781696,0
9.994,-0.5556,-1.0652,0.1827,0.3959,-0.2308,1.5971,0.179,0.8373,-0.2077,850.1484,4.86,52.26,-5.58,10.937,61.233,71.798,49.17437819,-121.6781696,0
10.016,-0.5556,-1.0652,0.1827,-1.8906,-1.5358,-0.2759,0.179,0.8373,-0.2077,850.1484,4.86,52.26,-5.58,10.937,61.233,71.798,49.17437819,-121.6781696,0
10.031,-0.4119,-0.8805,0.3107,-1.8906,-1.5358,-0.2759,0.179,0.8373,-0.2077,850.1484,4.86,52.26,-5.58,4.332,59.632,52.973,49.17437819,-121.6781696,0
10.034,-0.4119,-0.8805,0.3107,-1.8906,-1.5358,-0.2759,0.179,0.8373,-0.2077,850.1484,3.78,51.78,-5.22,5.18,59.632,52.973,49.17437819,-121.6781696,0
10.037,-0.4119,-0.8805,0.3107,-1.8906,-1.5358,-0.2759,0.3505,0.4208,-0.1406,850.1484,3.78,51.78,-5.22,5.18,59.632,52.973,49.17437819,-121.6781696,0
10.071,-0.4119,-0.8805,0.3107,-0.4953,0.2398,0.8158,0.3505,0.4208,-0.1406,850.1484,3.78,51.78,-5.22,5.18,59.632,52.973,49.17437819,-121.6781696,0
10.103,-0.3357,-0.7965,0.2555,-0.4953,0.2398,0.8158,0.3505,0.4208,-0.1406,850.1484,3.78,51.78,-5.22,5.669,62.093,52.725,49.17437819,-121.6781696,0
10.109,-0.3357,-0.7965,0.2555,-0.4953,0.2398,0.8158,0.3505,0.4208,-0.1406,850.1484,3,51.36,-4.8,5.906,62.093,52.725,49.17437819,-121.6781696,0
10.116,-0.3357,-0.7965,0.2555,-0.4953,0.2398,0.8158,0.229,0.4027,-0.2482,850.1484,3,51.36,-4.8,5.906,62.093,52.725,49.17437819,-121.6781696,0
10.13,-0.3357,-0.7965,0.2555,0.2457,1.0479,0.2047,0.229,0.4027,-0.2482,850.1484,3,51.36,-4.8,5.906,62.093,52.725,49.17437819,-121.6781696,0
10.15,-0.45,-0.8771,0.2613,0.2457,1.0479,0.2047,0.229,0.4027,-0.2482,850.1484,3,51.36,-4.8,6.884,59.319,59.854,49.17437819,-121.6781696,0
10.152,-0.45,-0.8771,0.2613,0.2457,1.0479,0.2047,0.229,0.4027,-0.2482,850.1484,2.52,51.12,-4.08,5.756,59.319,59.854,49.17437819,-121.6781696,0
10.154,-0.45,-0.8771,0.2613,0.2457,1.0479,0.2047,-0.115,0.2791,0.1417,850.1484,2.52,51.12,-4.08,5.756,59.319,59.854,49.17437819,-121.6781696,0
10.17,-0.45,-0.8771,0.2613,0.2457,1.0479,0.2047,-0.115,0.2791,0.1417,850.207,2.52,51.12,-4.08,5.756,59.319,59.854,49.17437819,-121.6781696,0
10.172,-0.45,-0.8771,0.2613,0.2457,1.0479,0.2047,-0.115,0.2791,0.1417,850.207,2.52,51.12,-4.08,5.756,59.319,59.854,49.17437819,-121.6781696,0
10.192,-0.45,-0.8771,0.2613,-0.7586,0.2303,0.3394,-0.115,0.2791,0.1417,850.207,2.52,51.12,-4.08,5.756,59.319,59.854,49.17437819,-121.6781696,0
10.209,-0.5233,-0.9201,0.2697,-0.7586,0.2303,0.3394,-0.115,0.2791,0.1417,850.207,2.52,51.12,-4.08,5.86,57.389,62.738,49.17437819,-121.6781696,0
10.211,-0.5233,-0.9201,0.2697,-0.7586,0.2303,0.3394,-0.115,0.2791,0.1417,850.207,2.22,50.94,-3.3,4.47,57.389,62.738,49.17437819,-121.6781696,0
10.212,-0.5233,-0.9201,0.2697,-0.7586,0.2303,0.3394,-0.0842,0.1832,0.2184,850.207,2.22,50.94,-3.3,4.47,57.389,62.738,49.17437819,-121.6781696,0
10.25,-0.5233,-0.9201,0.2697,-1.2632,-0.2622,0.5025,-0.0842,0.1832,0.2184,850.207,2.22,50.94,-3.3,4.47,57.389,62.738,49.17437819,-121.6781696,0
10.27,-0.4383,-0.9196,0.1793,-1.2632,-0.2622,0.5025,-0.0842,0.1832,0.2184,850.207,2.22,50.94,-3.3,6.199,62.756,67.755,49.17437819,-121.6781696,0
10.272,-0.4383,-0.9196,0.1793,-1.2632,-0.2622,0.5025,-0.0842,0.1832,0.2184,850.207,1.98,50.82,-2.46,4.198,62.756,67.755,49.17437819,-121.6781696,0
10.273,-0.4383,-0.9196,0.1793,-1.2632,-0.2622,0.5025,0.1832,-0.0501,0.1534,850.207,1.98,50.82,-2.46,4.198,62.756,67.755,49.17437819,-121.6781696,0
10.31,-0.4383,-0.9196,0.1793,-0.3209,-0.3028,-0.3691,0.1832,-0.0501,0.1534,850.207,1.98,50.82,-2.46,4.198,62.756,67.755,49.17437819,-121.6781696,0
10.33,-0.4808,-0.861,0.0659,-0.3209,-0.3028,-0.3691,0.1832,-0.0501,0.1534,850.207,1.98,50.82,-2.46,5.397,60.593,82.195,49.17437819,-121.6781696,0
10.332,-0.4808,-0.861,0.0659,-0.3209,-0.3028,-0.3691,0.1832,-0.0501,0.1534,850.207,1.74,50.64,-1.68,3.528,60.593,82.195,49.17437819,-121.6781696,0
10.334,-0.4808,-0.861,0.0659,-0.3209,-0.3028,-0.3691,0.2514,-0.3654,0.1321,850.207,1.74,50.64,-1.68,3.528,60.593,82.195,49.17437819,-121.6781696,0
10.35,-0.4808,-0.861,0.0659,-0.3209,-0.3028,-0.3691,0.2514,-0.3654,0.1321,850.1133,1.74,50.64,-1.68,3.528,60.593,82.195,49.17437819,-121.6781696,0
10.352,-0.4808,-0.861,0.0659,-0.3209,-0.3028,-0.3691,0.2514,-0.3654,0.1321,850.1133,1.74,50.64,-1.68,3.528,60.593,82.195,49.17437819,-121.6781696,0
10.37,-0.4808,-0.861,0.0659,-0.7258,0.2438,-1.5706,0.2514,-0.3654,0.1321,850.1133,1.74,50.64,-1.68,3.528,60.593,82.195,49.17437819,-121.6781696,0
10.394,-0.3748,-0.7423,0.2985,-0.7258,0.2438,-1.5706,0.2514,-0.3654,0.1321,850.1133,1.74,50.64,-1.68,0.518,57.159,51.465,49.17437819,-121.6781696,0
10.403,-0.3748,-0.7423,0.2985,-0.7258,0.2438,-1.5706,0.2514,-0.3654,0.1321,850.1133,1.5,50.52,-0.9,-0.509,57.159,51.465,49.17437819,-121.6781696,0
10.409,-0.3748,-0.7423,0.2985,-0.7258,0.2438,-1.5706,-0.1044,-0.5262,-0.0469,850.1133,1.5,50.52,-0.9,-0.509,57.159,51.465,49.17437819,-121.6781696,0
10.43,-0.3748,-0.7423,0.2985,0.1926,1.409,0.5102,-0.1044,-0.5262,-0.0469,850.1133,1.5,50.52,-0.9,-0.509,57.159,51.465,49.17437819,-121.6781696,0
10.45,-0.5663,-0.9323,0.1397,0.1926,1.409,0.5102,-0.1044,-0.5262,-0.0469,850.1133,1.5,50.52,-0.9,1.162,57.97,76.144,49.17437819,-121.6781696,0
10.451,-0.5663,-0.9323,0.1397,0.1926,1.409,0.5102,-0.1044,-0.5262,-0.0469,850.1133,1.26,50.4,-0.18,-0.284,57.97,76.144,49.17437819,-121.6781696,0
10.453,-0.5663,-0.9323,0.1397,0.1926,1.409,0.5102,-0.3515,-0.7649,0.2727,850.1133,1.26,50.4,-0.18,-0.284,57.97,76.144,49.17437819,-121.6781696,0
10.491,-0.5663,-0.9323,0.1397,-1.6125,-0.5165,-1.1525,-0.3515,-0.7649,0.2727,850.1133,1.26,50.4,-0.18,-0.284,57.97,76.144,49.17437819,-121.6781696,0
10.511,-0.2971,-0.97,0.2633,-1.6125,-0.5165,-1.1525,-0.3515,-0.7649,0.2727,850.1133,1.26,50.4,-0.18,-2.217,67.743,48.449,49.17437819,-121.6781696,0
10.514,-0.2971,-0.97,0.2633,-1.6125,-0.5165,-1.1525,-0.3515,-0.7649,0.2727,850.1133,1.08,50.34,0.54,-3.438,67.743,48.449,49.17437819,-121.6781696,0
10.52,-0.2971,-0.97,0.2633,-1.6125,-0.5165,-1.1525,-0.1044,-0.7947,0.2216,850.1133,1.08,50.34,0.54,-3.438,67.743,48.449,49.17437819,-121.6781696,0
10.532,-0.2971,-0.97,0.2633,-1.6125,-0.5165,-1.1525,-0.1044,-0.7947,0.2216,850.178,1.08,50.34,0.54,-3.438,67.743,48.449,49.17437819,-121.6781696,0
10.536,-0.2971,-0.97,0.2633,-1.6125,-0.5165,-1.1525,-0.1044,-0.7947,0.2216,850.178,1.08,50.34,0.54,-3.438,67.743,48.449,49.17437819,-121.6781696,0
10.551,-0.2971,-0.97,0.2633,0.9567,-0.8754,-0.0135,-0.1044,-0.7947,0.2216,850.178,1.08,50.34,0.54,-3.438,67.743,48.449,49.17437819,-121.6781696,0
10.571,-0.1935,-0.9103,0.3327,0.9567,-0.8754,-0.0135,-0.1044,-0.7947,0.2216,850.178,1.08,50.34,0.54,-3.531,67.083,30.182,49.17437819,-121.6781696,0
10.573,-0.1935,-0.9103,0.3327,0.9567,-0.8754,-0.0135,-0.1044,-0.7947,0.2216,850.178,0.84,50.28,1.26,-3.852,67.083,30.182,49.17437819,-121.6781696,0
10.576,-0.1935,-0.9103,0.3327,0.9567,-0.8754,-0.0135,0.0256,-0.2471,-0.0117,850.178,0.84,50.28,1.26,-3.852,67.083,30.182,49.17437819,-121.6781696,0
10.612,-0.1935,-0.9103,0.3327,1.7842,-0.2465,0.5451,0.0256,-0.2471,-0.0117,850.178,0.84,50.28,1.26,-3.852,67.083,30.182,49.17437819,-121.6781696,0
10.63,-0.3376,-0.8761,0.3175,1.7842,-0.2465,0.5451,0.0256,-0.2471,-0.0117,850.178,0.84,50.28,1.26,-3.6,62.121,46.757,49.17437819,-121.6781696,0
10.633,-0.3376,-0.8761,0.3175,1.7842,-0.2465,0.5451,0.0256,-0.2471,-0.0117,850.178,0.66,50.22,1.98,-4.466,62.121,46.757,49.17437819,-121.6781696,0
10.636,-0.3376,-0.8761,0.3175,1.7842,-0.2465,0.5451,0.1236,0.0842,-0.0905,850.178,0.66,50.22,1.98,-4.466,62.121,46.757,49.17437819,-121.6781696,0
10.671,-0.3376,-0.8761,0.3175,0.3017,0.0969,0.3301,0.1236,0.0842,-0.0905,850.178,0.66,50.22,1.98,-4.466,62.121,46.757,49.17437819,-121.6781696,0
10.692,-0.2663,-0.9675,0.3405,0.3017,0.0969,0.3301,0.1236,0.0842,-0.0905,850.178,0.66,50.22,1.98,-4.618,65.926,38.028,49.17437819,-121.6781696,0
10.7,-0.2663,-0.9675,0.3405,0.3017,0.0969,0.3301,0.1236,0.0842,-0.0905,850.178,0.42,50.16,2.58,-4.97,65.926,38.028,49.17437819,-121.6781696,0
10.705,-0.2663,-0.9675,0.3405,0.3017,0.0969,0.3301,0.3089,0.4112,-0.1246,850.178,0.42,50.16,2.58,-4.97,65.926,38.028,49.17437819,-121.6781696,0
10.723,-0.2663,-0.9675,0.3405,0.3017,0.0969,0.3301,0.3089,0.4112,-0.1246,850.1702,0.42,50.16,2.58,-4.97,65.926,38.028,49.17437819,-121.6781696,0
10.724,-0.2663,-0.9675,0.3405,0.3017,0.0969,0.3301,0.3089,0.4112,-0.1246,850.1702,0.42,50.16,2.58,-4.97,65.926,38.028,49.17437819,-121.6781696,0
10.729,-0.2663,-0.9675,0.3405,0.9299,-0.8079,0.4371,0.3089,0.4112,-0.1246,850.1702,0.42,50.16,2.58,-4.97,65.926,38.028,49.17437819,-121.6781696,0
10.749,-0.4007,-0.86,0.2144,0.9299,-0.8079,0.4371,0.3089,0.4112,-0.1246,850.1702,0.42,50.16,2.58,-5.839,62.148,61.844,49.17437819,-121.6781696,0
10.752,-0.4007,-0.86,0.2144,0.9299,-0.8079,0.4371,0.3089,0.4112,-0.1246,850.1702,0.24,50.16,3,-6.424,62.148,61.844,49.17437819,-121.6781696,0
10.753,-0.4007,-0.86,0.2144,0.9299,-0.8079,0.4371,0.3792,0.6168,-0.0224,850.1702,0.24,50.16,3,-6.424,62.148,61.844,49.17437819,-121.6781696,0
10.79,-0.4007,-0.86,0.2144,-0.2746,0.1908,-0.822,0.3792,0.6168,-0.0224,850.1702,0.24,50.16,3,-6.424,62.148,61.844,49.17437819,-121.6781696,0
10.81,-0.4153,-0.798,0.2491,-0.2746,0.1908,-0.822,0.3792,0.6168,-0.0224,850.1702,0.24,50.16,3,-5.667,58.745,59.042,49.17437819,-121.6781696,0
10.813,-0.4153,-0.798,0.2491,-0.2746,0.1908,-0.822,0.3792,0.6168,-0.0224,850.1702,0.06,50.1,3.3,-5.96,58.745,59.042,49.17437819,-121.6781696,0
10.816,-0.4153,-0.798,0.2491,-0.2746,0.1908,-0.822,0.2258,0.6274,0.066,850.1702,0.06,50.1,3.3,-5.96,58.745,59.042,49.17437819,-121.6781696,0
10.853,-0.4153,-0.798,0.2491,-0.2756,0.7379,-0.4796,0.2258,0.6274,0.066,850.1702,0.06,50.1,3.3,-5.96,58.745,59.042,49.17437819,-121.6781696,0
10.882,-0.4095,-0.8527,0.2242,-0.2756,0.7379,-0.4796,0.2258,0.6274,0.066,850.1702,0.06,50.1,3.3,-6.565,61.3,61.296,49.17437819,-121.6781696,0
10.889,-0.4095,-0.8527,0.2242,-0.2756,0.7379,-0.4796,0.2258,0.6274,0.066,850.1702,-0.06,50.04,3.48,-6.751,61.3,61.296,49.17437819,-121.6781696,0
10.895,-0.4095,-0.8527,0.2242,-0.2756,0.7379,-0.4796,0.0895,0.4836,0.0927,850.1702,-0.06,50.04,3.48,-6.751,61.3,61.296,49.17437819,-121.6781696,0
10.905,-0.4095,-0.8527,0.2242,-0.2756,0.7379,-0.4796,0.0895,0.4836,0.0927,850.1663,-0.06,50.04,3.48,-6.751,61.3,61.296,49.17437819,-121.6781696,0
10.907,-0.4095,-0.8527,0.2242,-0.2756,0.7379,-0.4796,0.0895,0.4836,0.0927,850.1663,-0.06,50.04,3.48,-6.751,61.3,61.296,49.17437819,-121.6781696,0
10.909,-0.4095,-0.8527,0.2242,-0.076,0.1671,-0.6351,0.0895,0.4836,0.0927,850.1663,-0.06,50.04,3.48,-6.751,61.3,61.296,49.17437819,-121.6781696,0
10.928,-0.4075,-0.9304,0.2462,-0.076,0.1671,-0.6351,0.0895,0.4836,0.0927,850.1663,-0.06,50.04,3.48,-6.876,62.9,58.861,49.17437819,-121.6781696,0
10.93,-0.4075,-0.9304,0.2462,-0.076,0.1671,-0.6351,0.0895,0.4836,0.0927,850.1663,-0.06,50.04,3.54,-6.987,62.9,58.861,49.17437819,-121.6781696,0
10.932,-0.4075,-0.9304,0.2462,-0.076,0.1671,-0.6351,0.0618,0.3515,-0.0107,850.1663,-0.06,50.04,3.54,-6.987,62.9,58.861,49.17437819,-121.6781696,0
10.968,-0.4075,-0.9304,0.2462,0.02,-0.5938,-0.3083,0.0618,0.3515,-0.0107,850.1663,-0.06,50.04,3.54,-6.987,62.9,58.861,49.17437819,-121.6781696,0
10.991,-0.3743,-1.0188,0.2653,0.02,-0.5938,-0.3083,0.0618,0.3515,-0.0107,850.1663,-0.06,50.04,3.54,-7.242,65.759,54.674,49.17437819,-121.6781696,0
11.001,-0.3743,-1.0188,0.2653,0.02,-0.5938,-0.3083,0.0618,0.3515,-0.0107,850.1663,-0.06,49.98,3.54,-7.25,65.759,54.674,49.17437819,-121.6781696,0
11.003,-0.3743,-1.0188,0.2653,0.02,-0.5938,-0.3083,0.0959,0.4826,0.0245,850.1663,-0.06,49.98,3.54,-7.25,65.759,54.674,49.17437819,-121.6781696,0
11.032,-0.3743,-1.0188,0.2653,0.3628,-1.4335,-0.0093,0.0959,0.4826,0.0245,850.1663,-0.06,49.98,3.54,-7.25,65.759,54.674,49.17437819,-121.6781696,0
11.054,-0.3875,-0.8615,0.2569,0.3628,-1.4335,-0.0093,0.0959,0.4826,0.0245,850.1663,-0.06,49.98,3.54,-6.525,61.645,56.45,49.17437819,-121.6781696,0
11.062,-0.3875,-0.8615,0.2569,0.3628,-1.4335,-0.0093,0.0959,0.4826,0.0245,850.1663,0.06,49.98,3.48,-6.592,61.645,56.45,49.17437819,-121.6781696,0
11.066,-0.3875,-0.8615,0.2569,0.3628,-1.4335,-0.0093,0.2695,0.6551,-0.1374,850.1663,0.06,49.98,3.48,-6.592,61.645,56.45,49.17437819,-121.6781696,0
11.071,-0.3875,-0.8615,0.2569,0.3628,-1.4335,-0.0093,0.2695,0.6551,-0.1374,850.2046,0.06,49.98,3.48,-6.592,61.645,56.45,49.17437819,-121.6781696,0
11.076,-0.3875,-0.8615,0.2569,0.3628,-1.4335,-0.0093,0.2695,0.6551,-0.1374,850.2046,0.06,49.98,3.48,-6.592,61.645,56.45,49.17437819,-121.6781696,0
11.088,-0.3875,-0.8615,0.2569,0.2234,0.1213,-0.0636,0.2695,0.6551,-0.1374,850.2046,0.06,49.98,3.48,-6.592,61.645,56.45,49.17437819,-121.6781696,0
11.108,-0.4119,-0.7305,0.2115,0.2234,0.1213,-0.0636,0.2695,0.6551,-0.1374,850.2046,0.06,49.98,3.48,-6.352,57.633,62.82,49.17437819,-121.6781696,0
11.11,-0.4119,-0.7305,0.2115,0.2234,0.1213,-0.0636,0.2695,0.6551,-0.1374,850.2046,0.18,49.98,3.36,-6.278,57.633,62.82,49.17437819,-121.6781696,0
11.111,-0.4119,-0.7305,0.2115,0.2234,0.1213,-0.0636,0.1108,0.473,-0.1001,850.2046,0.18,49.98,3.36,-6.278,57.633,62.82,49.17437819,-121.6781696,0
11.149,-0.4119,-0.7305,0.2115,0.0468,1.3919,-0.4517,0.1108,0.473,-0.1001,850.2046,0.18,49.98,3.36,-6.278,57.633,62.82,49.17437819,-121.6781696,0
11.17,-0.4485,-0.7515,0.2672,0.0468,1.3919,-0.4517,0.1108,0.473,-0.1001,850.2046,0.18,49.98,3.36,-5.708,55.212,59.217,49.17437819,-121.6781696,0
11.173,-0.4485,-0.7515,0.2672,0.0468,1.3919,-0.4517,0.1108,0.473,-0.1001,850.2046,0.36,49.98,3.06,-5.438,55.212,59.217,49.17437819,-121.6781696,0
11.177,-0.4485,-0.7515,0.2672,0.0468,1.3919,-0.4517,-0.3345,0.3068,0.0224,850.2046,0.36,49.98,3.06,-5.438,55.212,59.217,49.17437819,-121.6781696,0
11.209,-0.4485,-0.7515,0.2672,-0.2347,1.202,0.282,-0.3345,0.3068,0.0224,850.2046,0.36,49.98,3.06,-5.438,55.212,59.217,49.17437819,-121.6781696,0
11.233,-0.5834,-0.8258,-0.0479,-0.2347,1.202,0.282,-0.3345,0.3068,0.0224,850.2046,0.36,49.98,3.06,-6.069,54.67,94.698,49.17437819,-121.6781696,0
11.239,-0.5834,-0.8258,-0.0479,-0.2347,1.202,0.282,-0.3345,0.3068,0.0224,850.2046,0.54,49.98,2.82,-5.588,54.67,94.698,49.17437819,-121.6781696,0
11.246,-0.5834,-0.8258,-0.0479,-0.2347,1.202,0.282,-0.4613,-0.0394,0.0245,850.2046,0.54,49.98,2.82,-5.588,54.67,94.698,49.17437819,-121.6781696,0
11.263,-0.5834,-0.8258,-0.0479,-0.2347,1.202,0.282,-0.4613,-0.0394,0.0245,850.2083,0.54,49.98,2.82,-5.588,54.67,94.698,49.17437819,-121.6781696,0
11.266,-0.5834,-0.8258,-0.0479,-0.2347,1.202,0.282,-0.4613,-0.0394,0.0245,850.2083,0.54,49.98,2.82,-5.588,54.67,94.698,49.17437819,-121.6781696,0
11.267,-0.5834,-0.8258,-0.0479,-1.4275,0.4767,-2.5503,-0.4613,-0.0394,0.0245,850.2083,0.54,49.98,2.82,-5.588,54.67,94.698,49.17437819,-121.6781696,0
11.288,-0.492,-0.9905,0.212,-1.4275,0.4767,-2.5503,-0.4613,-0.0394,0.0245,850.2083,0.54,49.98,2.82,-6.575,61.591,66.691,49.17437819,-121.6781696,0
11.29,-0.492,-0.9905,0.212,-1.4275,0.4767,-2.5503,-0.4613,-0.0394,0.0245,850.2083,0.72,49.98,2.64,-6.41,61.591,66.691,49.17437819,-121.6781696,0
11.292,-0.492,-0.9905,0.212,-1.4275,0.4767,-2.5503,-0.1992,0.1012,-0.0778,850.2083,0.72,49.98,2.64,-6.41,61.591,66.691,49.17437819,-121.6781696,0
11.327,-0.492,-0.9905,0.212,-0.5533,-1.0852,0.1751,-0.1992,0.1012,-0.0778,850.2083,0.72,49.98,2.64,-6.41,61.591,66.691,49.17437819,-121.6781696,0
11.35,-0.388,-0.9211,0.2135,-0.5533,-1.0852,0.1751,-0.1992,0.1012,-0.0778,850.2083,0.72,49.98,2.64,-6.823,64.325,61.18,49.17437819,-121.6781696,0
11.357,-0.388,-0.9211,0.2135,-0.5533,-1.0852,0.1751,-0.1992,0.1012,-0.0778,850.2083,0.9,49.98,2.46,-6.708,64.325,61.18,49.17437819,-121.6781696,0
11.358,-0.388,-0.9211,0.2135,-0.5533,-1.0852,0.1751,0.0607,0.1204,0.0085,850.2083,0.9,49.98,2.46,-6.708,64.325,61.18,49.17437819,-121.6781696,0
11.388,-0.388,-0.9211,0.2135,0.4401,-0.4028,0.142,0.0607,0.1204,0.0085,850.2083,0.9,49.98,2.46,-6.708,64.325,61.18,49.17437819,-121.6781696,0
11.408,-0.4104,-0.8434,0.1988,0.4401,-0.4028,0.142,0.0607,0.1204,0.0085,850.2083,0.9,49.98,2.46,-6.197,61.599,64.156,49.17437819,-121.6781696,0
11.409,-0.4104,-0.8434,0.1988,0.4401,-0.4028,0.142,0.0607,0.1204,0.0085,850.2083,1.02,49.98,2.28,-5.979,61.599,64.156,49.17437819,-121.6781696,0
11.412,-0.4104,-0.8434,0.1988,0.4401,-0.4028,0.142,0.0554,0.1523,0.0245,850.2083,1.02,49.98,2.28,-5.979,61.599,64.156,49.17437819,-121.6781696,0
11.429,-0.4104,-0.8434,0.1988,0.4401,-0.4028,0.142,0.0554,0.1523,0.0245,850.1714,1.02,49.98,2.28,-5.979,61.599,64.156,49.17437819,-121.6781696,0
11.432,-0.4104,-0.8434,0.1988,0.4401,-0.4028,0.142,0.0554,0.1523,0.0245,850.1714,1.02,49.98,2.28,-5.979,61.599,64.156,49.17437819,-121.6781696,0
11.447,-0.4104,-0.8434,0.1988,0.2444,0.3668,0.0906,0.0554,0.1523,0.0245,850.1714,1.02,49.98,2.28,-5.979,61.599,64.156,49.17437819,-121.6781696,0
11.467,-0.4481,-0.8752,0.1895,0.2444,0.3668,0.0906,0.0554,0.1523,0.0245,850.1714,1.02,49.98,2.28,-5.882,60.931,67.072,49.17437819,-121.6781696,0
11.469,-0.4481,-0.8752,0.1895,0.2444,0.3668,0.0906,0.0554,0.1523,0.0245,850.1714,1.2,49.92,2.16,-5.839,60.931,67.072,49.17437819,-121.6781696,0
11.471,-0.4481,-0.8752,0.1895,0.2444,0.3668,0.0906,-0.0405,0.1257,0.0064,850.1714,1.2,49.92,2.16,-5.839,60.931,67.072,49.17437819,-121.6781696,0
11.51,-0.4481,-0.8752,0.1895,-0.1541,0.0784,0.0382,-0.0405,0.1257,0.0064,850.1714,1.2,49.92,2.16,-5.839,60.931,67.072,49.17437819,-121.6781696,0
11.532,-0.4256,-0.9323,0.1734,-0.1541,0.0784,0.0382,-0.0405,0.1257,0.0064,850.1714,1.2,49.92,2.16,-6.419,63.761,67.832,49.17437819,-121.6781696,0
11.545,-0.4256,-0.9323,0.1734,-0.1541,0.0784,0.0382,-0.0405,0.1257,0.0064,850.1714,1.38,49.92,2.04,-6.362,63.761,67.832,49.17437819,-121.6781696,0
11.552,-0.4256,-0.9323,0.1734,-0.1541,0.0784,0.0382,0.0383,0.0714,0.0138,850.1714,1.38,49.92,2.04,-6.362,63.761,67.832,49.17437819,-121.6781696,0
11.567,-0.4256,-0.9323,0.1734,0.0423,-0.4785,-0.1591,0.0383,0.0714,0.0138,850.1714,1.38,49.92,2.04,-6.362,63.761,67.832,49.17437819,-121.6781696,0
11.587,-0.3997,-1.0115,0.1954,0.0423,-0.4785,-0.1591,0.0383,0.0714,0.0138,850.1714,1.38,49.92,2.04,-7.028,66.259,63.949,49.17437819,-121.6781696,0
11.589,-0.3997,-1.0115,0.1954,0.0423,-0.4785,-0.1591,0.0383,0.0714,0.0138,850.1714,1.56,49.92,1.92,-7.015,66.259,63.949,49.17437819,-121.6781696,0
11.59,-0.3997,-1.0115,0.1954,0.0423,-0.4785,-0.1591,0.0724,0.2727,0.1864,850.1714,1.56,49.92,1.92,-7.015,66.259,63.949,49.17437819,-121.6781696,0
11.607,-0.3997,-1.0115,0.1954,0.0423,-0.4785,-0.1591,0.0724,0.2727,0.1864,850.1719,1.56,49.92,1.92,-7.015,66.259,63.949,49.17437819,-121.6781696,0
11.608,-0.3997,-1.0115,0.1954,0.0423,-0.4785,-0.1591,0.0724,0.2727,0.1864,850.1719,1.56,49.92,1.92,-7.015,66.259,63.949,49.17437819,-121.6781696,0
11.628,-0.3997,-1.0115,0.1954,0.3672,-1.2758,0.1194,0.0724,0.2727,0.1864,850.1719,1.56,49.92,1.92,-7.015,66.259,63.949,49.17437819,-121.6781696,0
11.649,-0.4095,-0.9118,0.1265,0.3672,-1.2758,0.1194,0.0724,0.2727,0.1864,850.1719,1.56,49.92,1.92,-6.419,64.827,72.833,49.17437819,-121.6781696,0
11.652,-0.4095,-0.9118,0.1265,0.3672,-1.2758,0.1194,0.0724,0.2727,0.1864,850.1719,1.68,49.92,1.86,-6.396,64.827,72.833,49.17437819,-121.6781696,0
11.655,-0.4095,-0.9118,0.1265,0.3672,-1.2758,0.1194,0.2226,0.3302,0.1161,850.1719,1.68,49.92,1.86,-6.396,64.827,72.833,49.17437819,-121.6781696,0
11.691,-0.4095,-0.9118,0.1265,0.3266,-0.3128,-0.4882,0.2226,0.3302,0.1161,850.1719,1.68,49.92,1.86,-6.396,64.827,72.833,49.17437819,-121.6781696,0
11.711,-0.408,-0.8923,0.1206,0.3266,-0.3128,-0.4882,0.2226,0.3302,0.1161,850.1719,1.68,49.92,1.86,-6.289,64.507,73.529,49.17437819,-121.6781696,0
11.722,-0.408,-0.8923,0.1206,0.3266,-0.3128,-0.4882,0.2226,0.3302,0.1161,850.1719,1.8,49.92,1.86,-6.415,64.507,73.529,49.17437819,-121.6781696,0
11.725,-0.408,-0.8923,0.1206,0.3266,-0.3128,-0.4882,0.2173,0.2855,0.1843,850.1719,1.8,49.92,1.86,-6.415,64.507,73.529,49.17437819,-121.6781696,0
11.75,-0.408,-0.8923,0.1206,0.3358,-0.1397,-0.6478,0.2173,0.2855,0.1843,850.1719,1.8,49.92,1.86,-6.415,64.507,73.529,49.17437819,-121.6781696,0
11.77,-0.6694,-1.6828,0.3786,0.3358,-0.1397,-0.6478,0.2173,0.2855,0.1843,850.1719,1.8,49.92,1.86,-7.084,65.44,60.507,49.17437819,-121.6781696,0
11.773,-0.6694,-1.6828,0.3786,0.3358,-0.1397,-0.6478,0.2173,0.2855,0.1843,850.1719,1.98,49.92,1.86,-7.384,65.44,60.507,49.17437819,-121.6781696,0
11.778,-0.6694,-1.6828,0.3786,0.3358,-0.1397,-0.6478,-0.2663,0.2855,0.3878,850.1719,1.98,49.92,1.86,-7.384,65.44,60.507,49.17437819,-121.6781696,0
11.787,-0.6694,-1.6828,0.3786,0.3358,-0.1397,-0.6478,-0.2663,0.2855,0.3878,850.1555,1.98,49.92,1.86,-7.384,65.44,60.507,49.17437819,-121.6781696,0
11.794,-0.6694,-1.6828,0.3786,0.3358,-0.1397,-0.6478,-0.2663,0.2855,0.3878,850.1555,1.98,49.92,1.86,-7.384,65.44,60.507,49.17437819,-121.6781696,0
11.808,-0.6694,-1.6828,0.3786,-1.771,-8.0604,2.2457,-0.2663,0.2855,0.3878,850.1555,1.98,49.92,1.86,-7.384,65.44,60.507,49.17437819,-121.6781696,0
11.828,-0.2599,-1.1576,0.3268,-1.771,-8.0604,2.2457,-0.2663,0.2855,0.3878,850.1555,1.98,49.92,1.86,-8.971,70.163,38.498,49.17437819,-121.6781696,0
11.831,-0.2599,-1.1576,0.3268,-1.771,-8.0604,2.2457,-0.2663,0.2855,0.3878,850.1555,2.1,49.92,1.92,-9.413,70.163,38.498,49.17437819,-121.6781696,0
11.835,-0.2599,-1.1576,0.3268,-1.771,-8.0604,2.2457,0.5177,0.2344,-0.1246,850.1555,2.1,49.92,1.92,-9.413,70.163,38.498,49.17437819,-121.6781696,0
11.87,-0.2599,-1.1576,0.3268,2.6173,-3.1353,1.751,0.5177,0.2344,-0.1246,850.1555,2.1,49.92,1.92,-9.413,70.163,38.498,49.17437819,-121.6781696,0
11.888,-0.5424,0.4758,-0.7178,2.6173,-3.1353,1.751,0.5177,0.2344,-0.1246,850.1555,2.1,49.92,1.92,0.653,-27.874,142.927,49.17437819,-121.6781696,0
11.891,-0.5424,0.4758,-0.7178,2.6173,-3.1353,1.751,0.5177,0.2344,-0.1246,850.1555,2.16,49.92,1.98,0.667,-27.874,142.927,49.17437819,-121.6781696,0
11.894,-0.5424,0.4758,-0.7178,2.6173,-3.1353,1.751,0.3334,0.3451,-0.2035,850.1555,2.16,49.92,1.98,0.667,-27.874,142.927,49.17437819,-121.6781696,0
11.928,-0.5424,0.4758,-0.7178,-0.4259,13.026,-8.5615,0.3334,0.3451,-0.2035,850.1555,2.16,49.92,1.98,0.667,-27.874,142.927,49.17437819,-121.6781696,0
11.947,-0.4261,-0.7437,0.3009,-0.4259,13.026,-8.5615,0.3334,0.3451,-0.2035,850.1555,2.16,49.92,1.98,-5.807,54.956,54.767,49.17437819,-121.6781696,0
11.95,-0.4261,-0.7437,0.3009,-0.4259,13.026,-8.5615,0.3334,0.3451,-0.2035,850.1555,2.16,49.92,2.04,-5.9,54.956,54.767,49.17437819,-121.6781696,0
11.953,-0.4261,-0.7437,0.3009,-0.4259,13.026,-8.5615,-0.3302,0.4549,-0.1949,850.1555,2.16,49.92,2.04,-5.9,54.956,54.767,49.17437819,-121.6781696,0
11.966,-0.4261,-0.7437,0.3009,-0.4259,13.026,-8.5615,-0.3302,0.4549,-0.1949,850.1919,2.16,49.92,2.04,-5.9,54.956,54.767,49.17437819,-121.6781696,0
11.969,-0.4261,-0.7437,0.3009,-0.4259,13.026,-8.5615,-0.3302,0.4549,-0.1949,850.1919,2.16,49.92,2.04,-5.9,54.956,54.767,49.17437819,-121.6781696,0
11.989,-0.4261,-0.7437,0.3009,0.9695,0.928,1.4703,-0.3302,0.4549,-0.1949,850.1919,2.16,49.92,2.04,-5.9,54.956,54.767,49.17437819,-121.6781696,0
12.009,-0.8165,-1.1913,0.2711,0.9695,0.928,1.4703,-0.3302,0.4549,-0.1949,850.1919,2.16,49.92,2.04,-5.323,54.165,71.631,49.17437819,-121.6781696,0
12.014,-0.8165,-1.1913,0.2711,0.9695,0.928,1.4703,-0.3302,0.4549,-0.1949,850.1919,2.16,49.98,2.1,-5.428,54.165,71.631,49.17437819,-121.6781696,0
12.018,-0.8165,-1.1913,0.2711,0.9695,0.928,1.4703,-0.8075,0.4985,0.1097,850.1919,2.16,49.98,2.1,-5.428,54.165,71.631,49.17437819,-121.6781696,0
12.052,-0.8165,-1.1913,0.2711,-2.9804,-3.3119,1.6459,-0.8075,0.4985,0.1097,850.1919,2.16,49.98,2.1,-5.428,54.165,71.631,49.17437819,-121.6781696,0
12.067,-0.6025,-1.3511,-0.0519,-2.9804,-3.3119,1.6459,-0.8075,0.4985,0.1097,850.1919,2.16,49.98,2.1,-5.953,65.889,94.919,49.17437819,-121.6781696,0
12.071,-0.6025,-1.3511,-0.0519,-2.9804,-3.3119,1.6459,-0.8075,0.4985,0.1097,850.1919,2.16,50.04,2.28,-6.504,65.889,94.919,49.17437819,-121.6781696,0
12.074,-0.6025,-1.3511,-0.0519,-2.9804,-3.3119,1.6459,0.1065,0.261,-0.0405,850.1919,2.16,50.04,2.28,-6.504,65.889,94.919,49.17437819,-121.6781696,0
12.108,-0.6025,-1.3511,-0.0519,-1.1741,-4.7358,-1.7191,0.1065,0.261,-0.0405,850.1919,2.16,50.04,2.28,-6.504,65.889,94.919,49.17437819,-121.6781696,0
12.132,-0.2091,-0.8053,0.1338,-1.1741,-4.7358,-1.7191,0.1065,0.261,-0.0405,850.1919,2.16,50.04,2.28,-12.274,72.865,57.385,49.17437819,-121.6781696,0
12.144,-0.2091,-0.8053,0.1338,-1.1741,-4.7358,-1.7191,0.1065,0.261,-0.0405,850.1919,2.16,50.04,2.46,-12.777,72.865,57.385,49.17437819,-121.6781696,0
12.151,-0.2091,-0.8053,0.1338,-1.1741,-4.7358,-1.7191,2.0719,-0.3164,-0.2567,850.1919,2.16,50.04,2.46,-12.777,72.865,57.385,49.17437819,-121.6781696,0
12.157,-0.2091,-0.8053,0.1338,-1.1741,-4.7358,-1.7191,2.0719,-0.3164,-0.2567,850.1941,2.16,50.04,2.46,-12.777,72.865,57.385,49.17437819,-121.6781696,0
12.162,-0.2091,-0.8053,0.1338,-1.1741,-4.7358,-1.7191,2.0719,-0.3164,-0.2567,850.1941,2.16,50.04,2.46,-12.777,72.865,57.385,49.17437819,-121.6781696,0
12.171,-0.2091,-0.8053,0.1338,2.4875,0.5146,-0.9063,2.0719,-0.3164,-0.2567,850.1941,2.16,50.04,2.46,-12.777,72.865,57.385,49.17437819,-121.6781696,0
12.187,-0.4564,-0.7936,0.3508,2.4875,0.5146,-0.9063,2.0719,-0.3164,-0.2567,850.1941,2.16,50.04,2.46,-6.382,54.046,52.454,49.17437819,-121.6781696,0
12.19,-0.4564,-0.7936,0.3508,2.4875,0.5146,-0.9063,2.0719,-0.3164,-0.2567,850.1941,2.16,50.1,2.64,-6.63,54.046,52.454,49.17437819,-121.6781696,0
12.193,-0.4564,-0.7936,0.3508,2.4875,0.5146,-0.9063,1.4072,0.8085,-0.2312,850.1941,2.16,50.1,2.64,-6.63,54.046,52.454,49.17437819,-121.6781696,0
12.227,-0.4564,-0.7936,0.3508,-0.0652,0.5378,0.6784,1.4072,0.8085,-0.2312,850.1941,2.16,50.1,2.64,-6.63,54.046,52.454,49.17437819,-121.6781696,0
12.247,-0.3254,-1.0345,0.232,-0.0652,0.5378,0.6784,1.4072,0.8085,-0.2312,850.1941,2.16,50.1,2.64,-10.798,68.876,54.51,49.17437819,-121.6781696,0
12.25,-0.3254,-1.0345,0.232,-0.0652,0.5378,0.6784,1.4072,0.8085,-0.2312,850.1941,2.16,50.16,2.58,-10.653,68.876,54.51,49.17437819,-121.6781696,0
12.253,-0.3254,-1.0345,0.232,-0.0652,0.5378,0.6784,1.2485,1.273,-0.1715,850.1941,2.16,50.16,2.58,-10.653,68.876,54.51,49.17437819,-121.6781696,0
12.289,-0.3254,-1.0345,0.232,1.433,-1.9265,-0.4435,1.2485,1.273,-0.1715,850.1941,2.16,50.16,2.58,-10.653,68.876,54.51,49.17437819,-121.6781696,0
12.306,-0.2497,-0.8278,0.1846,1.433,-1.9265,-0.4435,1.2485,1.273,-0.1715,850.1941,2.16,50.16,2.58,-10.908,69.437,53.518,49.17437819,-121.6781696,0
12.309,-0.2497,-0.8278,0.1846,1.433,-1.9265,-0.4435,1.2485,1.273,-0.1715,850.1941,2.16,50.16,2.28,-10.238,69.437,53.518,49.17437819,-121.6781696,0
12.312,-0.2497,-0.8278,0.1846,1.433,-1.9265,-0.4435,0.6701,1.9643,0.1417,850.1941,2.16,50.16,2.28,-10.238,69.437,53.518,49.17437819,-121.6781696,0
12.326,-0.2497,-0.8278,0.1846,1.433,-1.9265,-0.4435,0.6701,1.9643,0.1417,850.1165,2.16,50.16,2.28,-10.238,69.437,53.518,49.17437819,-121.6781696,0
12.328,-0.2497,-0.8278,0.1846,1.433,-1.9265,-0.4435,0.6701,1.9643,0.1417,850.1165,2.16,50.16,2.28,-10.238,69.437,53.518,49.17437819,-121.6781696,0
12.346,-0.2497,-0.8278,0.1846,2.6038,-0.092,-0.7081,0.6701,1.9643,0.1417,850.1165,2.16,50.16,2.28,-10.238,69.437,53.518,49.17437819,-121.6781696,0
12.366,-0.4603,-0.9436,0.0635,2.6038,-0.092,-0.7081,0.6701,1.9643,0.1417,850.1165,2.16,50.16,2.28,-7.094,63.784,82.15,49.17437819,-121.6781696,0
12.368,-0.4603,-0.9436,0.0635,2.6038,-0.092,-0.7081,0.6701,1.9643,0.1417,850.1165,2.22,50.16,1.86,-6.001,63.784,82.15,49.17437819,-121.6781696,0
12.371,-0.4603,-0.9436,0.0635,2.6038,-0.092,-0.7081,1.1931,2.4746,0.4144,850.1165,2.22,50.16,1.86,-6.001,63.784,82.15,49.17437819,-121.6781696,0
12.407,-0.4603,-0.9436,0.0635,1.1212,-1.5982,-1.817,1.1931,2.4746,0.4144,850.1165,2.22,50.16,1.86,-6.001,63.784,82.15,49.17437819,-121.6781696,0
12.43,-0.6635,-0.816,0.2784,1.1212,-1.5982,-1.817,1.1931,2.4746,0.4144,850.1165,2.22,50.16,1.86,-4.573,48.594,67.235,49.17437819,-121.6781696,0
12.436,-0.6635,-0.816,0.2784,1.1212,-1.5982,-1.817,1.1931,2.4746,0.4144,850.1165,2.28,50.04,1.26,-3.668,48.594,67.235,49.17437819,-121.6781696,0
12.457,-0.6635,-0.816,0.2784,1.1212,-1.5982,-1.817,1.2975,1.9601,0.6573,850.1165,2.28,50.04,1.26,-3.668,48.594,67.235,49.17437819,-121.6781696,0
12.465,-0.6635,-0.816,0.2784,-0.3775,-0.7531,0.2438,1.2975,1.9601,0.6573,850.1165,2.28,50.04,1.26,-3.668,48.594,67.235,49.17437819,-121.6781696,0
12.485,-0.6518,-0.6665,0.1758,-0.3775,-0.7531,0.2438,1.2975,1.9601,0.6573,850.1165,2.28,50.04,1.26,-3.022,44.633,74.903,49.17437819,-121.6781696,0
12.486,-0.6518,-0.6665,0.1758,-0.3775,-0.7531,0.2438,1.2975,1.9601,0.6573,850.1165,2.46,49.92,0.54,-1.96,44.633,74.903,49.17437819,-121.6781696,0
12.488,-0.6518,-0.6665,0.1758,-0.3775,-0.7531,0.2438,1.4328,1.5393,0.3984,850.1165,2.46,49.92,0.54,-1.96,44.633,74.903,49.17437819,-121.6781696,0
12.504,-0.6518,-0.6665,0.1758,-0.3775,-0.7531,0.2438,1.4328,1.5393,0.3984,850.2253,2.46,49.92,0.54,-1.96,44.633,74.903,49.17437819,-121.6781696,0
12.506,-0.6518,-0.6665,0.1758,-0.3775,-0.7531,0.2438,1.4328,1.5393,0.3984,850.2253,2.46,49.92,0.54,-1.96,44.633,74.903,49.17437819,-121.6781696,0
12.525,-0.6518,-0.6665,0.1758,0.1036,0.4126,-0.6862,1.4328,1.5393,0.3984,850.2253,2.46,49.92,0.54,-1.96,44.633,74.903,49.17437819,-121.6781696,0
12.544,-0.6963,-0.6382,0.0688,0.1036,0.4126,-0.6862,1.4328,1.5393,0.3984,850.2253,2.46,49.92,0.54,-1.266,42.369,84.354,49.17437819,-121.6781696,0
12.545,-0.6963,-0.6382,0.0688,0.1036,0.4126,-0.6862,1.4328,1.5393,0.3984,850.2253,2.82,49.62,-0.3,0.035,42.369,84.354,49.17437819,-121.6781696,0
12.547,-0.6963,-0.6382,0.0688,0.1036,0.4126,-0.6862,1.241,1.3614,0.2855,850.2253,2.82,49.62,-0.3,0.035,42.369,84.354,49.17437819,-121.6781696,0
12.584,-0.6963,-0.6382,0.0688,0.0124,0.3974,-1.6048,1.241,1.3614,0.2855,850.2253,2.82,49.62,-0.3,0.035,42.369,84.354,49.17437819,-121.6781696,0
12.604,-0.6836,-0.5346,0.1441,0.0124,0.3974,-1.6048,1.241,1.3614,0.2855,850.2253,2.82,49.62,-0.3,-0.438,37.425,78.098,49.17437819,-121.6781696,0
12.605,-0.6836,-0.5346,0.1441,0.0124,0.3974,-1.6048,1.241,1.3614,0.2855,850.2253,3.3,49.26,-1.44,1.129,37.425,78.098,49.17437819,-121.6781696,0
12.607,-0.6836,-0.5346,0.1441,0.0124,0.3974,-1.6048,0.9225,1.1356,0.3292,850.2253,3.3,49.26,-1.44,1.129,37.425,78.098,49.17437819,-121.6781696,0
12.644,-0.6836,-0.5346,0.1441,0.4344,1.1552,-0.685,0.9225,1.1356,0.3292,850.2253,3.3,49.26,-1.44,1.129,37.425,78.098,49.17437819,-121.6781696,0
12.666,-0.6508,-0.455,0.1509,0.4344,1.1552,-0.685,0.9225,1.1356,0.3292,850.2253,3.3,49.26,-1.44,0.972,34.254,76.945,49.17437819,-121.6781696,0
12.669,-0.6508,-0.455,0.1509,0.4344,1.1552,-0.685,0.9225,1.1356,0.3292,850.2253,3.96,48.72,-2.7,2.632,34.254,76.945,49.17437819,-121.6781696,0
12.673,-0.6508,-0.455,0.1509,0.4344,1.1552,-0.685,0.5923,1.1004,0.2056,850.2253,3.96,48.72,-2.7,2.632,34.254,76.945,49.17437819,-121.6781696,0
12.686,-0.6508,-0.455,0.1509,0.4344,1.1552,-0.685,0.5923,1.1004,0.2056,850.1621,3.96,48.72,-2.7,2.632,34.254,76.945,49.17437819,-121.6781696,0
12.689,-0.6508,-0.455,0.1509,0.4344,1.1552,-0.685,0.5923,1.1004,0.2056,850.1621,3.96,48.72,-2.7,2.632,34.254,76.945,49.17437819,-121.6781696,0
12.706,-0.6508,-0.455,0.1509,0.9548,1.8692,-0.0561,0.5923,1.1004,0.2056,850.1621,3.96,48.72,-2.7,2.632,34.254,76.945,49.17437819,-121.6781696,0
12.726,-0.7344,-0.5395,-0.1222,0.9548,1.8692,-0.0561,0.5923,1.1004,0.2056,850.1621,3.96,48.72,-2.7,5.06,35.929,99.448,49.17437819,-121.6781696,0
12.729,-0.7344,-0.5395,-0.1222,0.9548,1.8692,-0.0561,0.5923,1.1004,0.2056,850.1621,4.68,48.06,-4.08,7.461,35.929,99.448,49.17437819,-121.6781696,0
12.733,-0.7344,-0.5395,-0.1222,0.9548,1.8692,-0.0561,0.2365,1.3241,0.0192,850.1621,4.68,48.06,-4.08,7.461,35.929,99.448,49.17437819,-121.6781696,0
12.765,-0.7344,-0.5395,-0.1222,0.2386,1.0053,-2.3333,0.2365,1.3241,0.0192,850.1621,4.68,48.06,-4.08,7.461,35.929,99.448,49.17437819,-121.6781696,0
12.784,-0.5145,-0.5962,0.0195,0.2386,1.0053,-2.3333,0.2365,1.3241,0.0192,850.1621,4.68,48.06,-4.08,7.998,49.185,87.831,49.17437819,-121.6781696,0
12.785,-0.5145,-0.5962,0.0195,0.2386,1.0053,-2.3333,0.2365,1.3241,0.0192,850.1621,5.52,47.22,-5.4,11.061,49.185,87.831,49.17437819,-121.6781696,0
12.787,-0.5145,-0.5962,0.0195,0.2386,1.0053,-2.3333,0.1087,-0.1012,-0.8522,850.1621,5.52,47.22,-5.4,11.061,49.185,87.831,49.17437819,-121.6781696,0
12.824,-0.5145,-0.5962,0.0195,1.9377,0.9896,-0.6892,0.1087,-0.1012,-0.8522,850.1621,5.52,47.22,-5.4,11.061,49.185,87.831,49.17437819,-121.6781696,0
12.844,-0.5785,-0.9436,0.0146,1.9377,0.9896,-0.6892,0.1087,-0.1012,-0.8522,850.1621,5.52,47.22,-5.4,14.827,58.479,88.555,49.17437819,-121.6781696,0
12.845,-0.5785,-0.9436,0.0146,1.9377,0.9896,-0.6892,0.1087,-0.1012,-0.8522,850.1621,6.54,46.5,-6.72,19.414,58.479,88.555,49.17437819,-121.6781696,0
12.847,-0.5785,-0.9436,0.0146,1.9377,0.9896,-0.6892,-0.1939,1.3135,-0.2376,850.1621,6.54,46.5,-6.72,19.414,58.479,88.555,49.17437819,-121.6781696,0
12.865,-0.5785,-0.9436,0.0146,1.9377,0.9896,-0.6892,-0.1939,1.3135,-0.2376,850.1262,6.54,46.5,-6.72,19.414,58.479,88.555,49.17437819,-121.6781696,0
12.868,-0.5785,-0.9436,0.0146,1.9377,0.9896,-0.6892,-0.1939,1.3135,-0.2376,850.1262,6.54,46.5,-6.72,19.414,58.479,88.555,49.17437819,-121.6781696,0
12.885,-0.5785,-0.9436,0.0146,1.1754,-2.2299,-0.1373,-0.1939,1.3135,-0.2376,850.1262,6.54,46.5,-6.72,19.414,58.479,88.555,49.17437819,-121.6781696,0
12.905,-0.7603,-0.8107,0.0244,1.1754,-2.2299,-0.1373,-0.1939,1.3135,-0.2376,850.1262,6.54,46.5,-6.72,13.601,46.822,88.164,49.17437819,-121.6781696,0
12.907,-0.7603,-0.8107,0.0244,1.1754,-2.2299,-0.1373,-0.1939,1.3135,-0.2376,850.1262,7.68,45.72,-7.98,16.864,46.822,88.164,49.17437819,-121.6781696,0
12.91,-0.7603,-0.8107,0.0244,1.1754,-2.2299,-0.1373,0.6967,1.5883,-0.4858,850.1262,7.68,45.72,-7.98,16.864,46.822,88.164,49.17437819,-121.6781696,0
12.947,-0.7603,-0.8107,0.0244,-0.7782,-0.758,0.2673,0.6967,1.5883,-0.4858,850.1262,7.68,45.72,-7.98,16.864,46.822,88.164,49.17437819,-121.6781696,0
12.966,-0.706,-0.7457,-0.0885,-0.7782,-0.758,0.2673,0.6967,1.5883,-0.4858,850.1262,7.68,45.72,-7.98,18.339,46.341,97.145,49.17437819,-121.6781696,0
12.969,-0.706,-0.7457,-0.0885,-0.7782,-0.758,0.2673,0.6967,1.5883,-0.4858,850.1262,8.82,44.94,-9.3,22.019,46.341,97.145,49.17437819,-121.6781696,0
12.972,-0.706,-0.7457,-0.0885,-0.7782,-0.758,0.2673,1.0855,1.8642,-0.3579,850.1262,8.82,44.94,-9.3,22.019,46.341,97.145,49.17437819,-121.6781696,0
13.005,-0.706,-0.7457,-0.0885,-0.3488,-0.0357,-0.5245,1.0855,1.8642,-0.3579,850.1262,8.82,44.94,-9.3,22.019,46.341,97.145,49.17437819,-121.6781696,0
13.025,-0.7793,-0.7667,-0.2786,-0.3488,-0.0357,-0.5245,1.0855,1.8642,-0.3579,850.1262,8.82,44.94,-9.3,21.71,42.811,109.669,49.17437819,-121.6781696,0
13.028,-0.7793,-0.7667,-0.2786,-0.3488,-0.0357,-0.5245,1.0855,1.8642,-0.3579,850.1262,9.96,44.1,-10.56,25.093,42.811,109.669,49.17437819,-121.6781696,0
13.031,-0.7793,-0.7667,-0.2786,-0.3488,-0.0357,-0.5245,1.0962,1.8046,-0.1555,850.1262,9.96,44.1,-10.56,25.093,42.811,109.669,49.17437819,-121.6781696,0
13.046,-0.7793,-0.7667,-0.2786,-0.3488,-0.0357,-0.5245,1.0962,1.8046,-0.1555,850.0317,9.96,44.1,-10.56,25.093,42.811,109.669,49.17437819,-121.6781696,0
13.049,-0.7793,-0.7667,-0.2786,-0.3488,-0.0357,-0.5245,1.0962,1.8046,-0.1555,850.0317,9.96,44.1,-10.56,25.093,42.811,109.669,49.17437819,-121.6781696,0
13.065,-0.7793,-0.7667,-0.2786,-1.1285,-0.2088,-2.0644,1.0962,1.8046,-0.1555,850.0317,9.96,44.1,-10.56,25.093,42.811,109.669,49.17437819,-121.6781696,0
13.085,-0.8854,-0.7442,-0.2932,-1.1285,-0.2088,-2.0644,1.0962,1.8046,-0.1555,850.0317,9.96,44.1,-10.56,23.234,38.588,108.325,49.17437819,-121.6781696,0
13.088,-0.8854,-0.7442,-0.2932,-1.1285,-0.2088,-2.0644,1.0962,1.8046,-0.1555,850.0317,11.22,43.32,-11.82,26.535,38.588,108.325,49.17437819,-121.6781696,0
13.091,-0.8854,-0.7442,-0.2932,-1.1285,-0.2088,-2.0644,1.1111,1.339,-0.2482,850.0317,11.22,43.32,-11.82,26.535,38.588,108.325,49.17437819,-121.6781696,0
13.129,-0.8854,-0.7442,-0.2932,-2.3102,0.1297,-2.1408,1.1111,1.339,-0.2482,850.0317,11.22,43.32,-11.82,26.535,38.588,108.325,49.17437819,-121.6781696,0
13.15,-0.815,-0.7017,-0.2102,-2.3102,0.1297,-2.1408,1.1111,1.339,-0.2482,850.0317,11.22,43.32,-11.82,26.799,39.818,104.46,49.17437819,-121.6781696,0
13.163,-0.815,-0.7017,-0.2102,-2.3102,0.1297,-2.1408,1.1111,1.339,-0.2482,850.0317,12.42,42.54,-12.96,30.058,39.818,104.46,49.17437819,-121.6781696,0
13.174,-0.815,-0.7017,-0.2102,-2.3102,0.1297,-2.1408,0.9768,1.029,-0.4634,850.0317,12.42,42.54,-12.96,30.058,39.818,104.46,49.17437819,-121.6781696,0
13.186,-0.815,-0.7017,-0.2102,-1.8422,0.7295,-1.3145,0.9768,1.029,-0.4634,850.0317,12.42,42.54,-12.96,30.058,39.818,104.46,49.17437819,-121.6781696,0
13.203,-0.7378,-0.7266,-0.1183,-1.8422,0.7295,-1.3145,0.9768,1.029,-0.4634,850.0317,12.42,42.54,-12.96,32.271,44.199,99.11,49.17437819,-121.6781696,0
13.204,-0.7378,-0.7266,-0.1183,-1.8422,0.7295,-1.3145,0.9768,1.029,-0.4634,850.0317,13.74,41.7,-13.92,35.923,44.199,99.11,49.17437819,-121.6781696,0
13.206,-0.7378,-0.7266,-0.1183,-1.8422,0.7295,-1.3145,0.783,0.8767,-0.6615,850.0317,13.74,41.7,-13.92,35.923,44.199,99.11,49.17437819,-121.6781696,0
13.223,-0.7378,-0.7266,-0.1183,-1.8422,0.7295,-1.3145,0.783,0.8767,-0.6615,850.2126,13.74,41.7,-13.92,35.923,44.199,99.11,49.17437819,-121.6781696,0
13.224,-0.7378,-0.7266,-0.1183,-1.8422,0.7295,-1.3145,0.783,0.8767,-0.6615,850.2126,13.74,41.7,-13.92,35.923,44.199,99.11,49.17437819,-121.6781696,0
13.243,-0.7378,-0.7266,-0.1183,-1.3991,0.7267,-0.3978,0.783,0.8767,-0.6615,850.2126,13.74,41.7,-13.92,35.923,44.199,99.11,49.17437819,-121.6781696,0
13.266,-0.7886,-0.69,0.0249,-1.3991,0.7267,-0.3978,0.783,0.8767,-0.6615,850.2126,13.74,41.7,-13.92,31.426,41.169,88.195,49.17437819,-121.6781696,0
13.271,-0.7886,-0.69,0.0249,-1.3991,0.7267,-0.3978,0.783,0.8767,-0.6615,850.2126,15.06,40.92,-14.52,34.282,41.169,88.195,49.17437819,-121.6781696,0
13.277,-0.7886,-0.69,0.0249,-1.3991,0.7267,-0.3978,0.6253,0.9172,-0.7073,850.2126,15.06,40.92,-14.52,34.282,41.169,88.195,49.17437819,-121.6781696,0
13.304,-0.7886,-0.69,0.0249,-2.1596,1.2641,1.1052,0.6253,0.9172,-0.7073,850.2126,15.06,40.92,-14.52,34.282,41.169,88.195,49.17437819,-121.6781696,0
13.324,-0.9831,-0.9783,-0.3196,-2.1596,1.2641,1.1052,0.6253,0.9172,-0.7073,850.2126,15.06,40.92,-14.52,38.804,43.421,108.01,49.17437819,-121.6781696,0
13.326,-0.9831,-0.9783,-0.3196,-2.1596,1.2641,1.1052,0.6253,0.9172,-0.7073,850.2126,16.38,40.2,-15,41.721,43.421,108.01,49.17437819,-121.6781696,0
13.329,-0.9831,-0.9783,-0.3196,-2.1596,1.2641,1.1052,0.3856,0.7702,-0.8352,850.2126,16.38,40.2,-15,41.721,43.421,108.01,49.17437819,-121.6781696,0
13.363,-0.9831,-0.9783,-0.3196,-4.4378,-1.2791,-2.7494,0.3856,0.7702,-0.8352,850.2126,16.38,40.2,-15,41.721,43.421,108.01,49.17437819,-121.6781696,0
13.386,-0.751,-0.6612,-0.0313,-4.4378,-1.2791,-2.7494,0.3856,0.7702,-0.8352,850.2126,16.38,40.2,-15,38.374,41.335,92.389,49.17437819,-121.6781696,0
13.392,-0.751,-0.6612,-0.0313,-4.4378,-1.2791,-2.7494,0.3856,0.7702,-0.8352,850.2126,17.64,39.54,-15.12,40.628,41.335,92.389,49.17437819,-121.6781696,0
13.401,-0.751,-0.6612,-0.0313,-4.4378,-1.2791,-2.7494,0.9396,0.0948,-1.1185,850.2126,17.64,39.54,-15.12,40.628,41.335,92.389,49.17437819,-121.6781696,0
13.41,-0.751,-0.6612,-0.0313,-4.4378,-1.2791,-2.7494,0.9396,0.0948,-1.1185,850.2207,17.64,39.54,-15.12,40.628,41.335,92.389,49.17437819,-121.6781696,0
13.414,-0.751,-0.6612,-0.0313,-4.4378,-1.2791,-2.7494,0.9396,0.0948,-1.1185,850.2207,17.64,39.54,-15.12,40.628,41.335,92.389,49.17437819,-121.6781696,0
13.424,-0.751,-0.6612,-0.0313,-2.4758,2.0241,-0.2139,0.9396,0.0948,-1.1185,850.2207,17.64,39.54,-15.12,40.628,41.335,92.389,49.17437819,-121.6781696,0
13.442,-0.7183,-0.6773,-0.0597,-2.4758,2.0241,-0.2139,0.9396,0.0948,-1.1185,850.2207,17.64,39.54,-15.12,43.148,43.22,94.749,49.17437819,-121.6781696,0
13.444,-0.7183,-0.6773,-0.0597,-2.4758,2.0241,-0.2139,0.9396,0.0948,-1.1185,850.2207,18.78,39,-15.3,45.569,43.22,94.749,49.17437819,-121.6781696,0
13.445,-0.7183,-0.6773,-0.0597,-2.4758,2.0241,-0.2139,0.5475,0.0096,-0.9236,850.2207,18.78,39,-15.3,45.569,43.22,94.749,49.17437819,-121.6781696,0
13.484,-0.7183,-0.6773,-0.0597,-2.4041,2.0045,-0.6664,0.5475,0.0096,-0.9236,850.2207,18.78,39,-15.3,45.569,43.22,94.749,49.17437819,-121.6781696,0
13.504,-0.5218,-0.7623,-0.0528,-2.4041,2.0045,-0.6664,0.5475,0.0096,-0.9236,850.2207,18.78,39,-15.3,64.991,55.47,95.781,49.17437819,-121.6781696,0
13.507,-0.5218,-0.7623,-0.0528,-2.4041,2.0045,-0.6664,0.5475,0.0096,-0.9236,850.2207,19.74,38.52,-15.3,68.082,55.47,95.781,49.17437819,-121.6781696,0
13.51,-0.5218,-0.7623,-0.0528,-2.4041,2.0045,-0.6664,0.3334,-0.0565,-0.8575,850.2207,19.74,38.52,-15.3,68.082,55.47,95.781,49.17437819,-121.6781696,0
13.544,-0.5218,-0.7623,-0.0528,-0.9716,1.4072,-0.9621,0.3334,-0.0565,-0.8575,850.2207,19.74,38.52,-15.3,68.082,55.47,95.781,49.17437819,-121.6781696,0
13.572,-0.2111,-0.6455,0.1201,-0.9716,1.4072,-0.9621,0.3334,-0.0565,-0.8575,850.2207,19.74,38.52,-15.3,159.749,69.381,60.353,49.17437819,-121.6781696,0
13.576,-0.2111,-0.6455,0.1201,-0.9716,1.4072,-0.9621,0.3334,-0.0565,-0.8575,850.2207,20.52,38.28,-15.12,163.677,69.381,60.353,49.17437819,-121.6781696,0
13.582,-0.2111,-0.6455,0.1201,-0.9716,1.4072,-0.9621,0.5358,-0.343,-1.1143,850.2207,20.52,38.28,-15.12,163.677,69.381,60.353,49.17437819,-121.6781696,0
13.585,-0.2111,-0.6455,0.1201,-0.9716,1.4072,-0.9621,0.5358,-0.343,-1.1143,850.1538,20.52,38.28,-15.12,163.677,69.381,60.353,49.17437819,-121.6781696,0
13.588,-0.2111,-0.6455,0.1201,-0.9716,1.4072,-0.9621,0.5358,-0.343,-1.1143,850.1538,20.52,38.28,-15.12,163.677,69.381,60.353,49.17437819,-121.6781696,0
13.602,-0.2111,-0.6455,0.1201,1.4371,2.8238,0.777,0.5358,-0.343,-1.1143,850.1538,20.52,38.28,-15.12,163.677,69.381,60.353,49.17437819,-121.6781696,0
13.622,-0.4446,-0.8752,0.0073,1.4371,2.8238,0.777,0.5358,-0.343,-1.1143,850.1538,20.52,38.28,-15.12,94.528,63.064,89.064,49.17437819,-121.6781696,0
13.623,-0.4446,-0.8752,0.0073,1.4371,2.8238,0.777,0.5358,-0.343,-1.1143,850.1538,20.76,38.16,-15,95.6,63.064,89.064,49.17437819,-121.6781696,0
