
time,gFx,gFy,gFz,ax,ay,az,wx,wy,wz,p,Bx,By,Bz,Azimuth,Pitch,Roll,Latitude,Longitude,Speed (m/s),
0.0200,0.3283,0.6048,0.7500,0.0168,-0.0936,0.3019,0.0138,-0.1502,0.0447,854.5264,1.0200,-32.2800,-46.6800,-92.321,-36.457,-23.645,49.17413001,-121.68320468,1.16999996,
0.0410,0.3147,0.6024,0.7338,0.0168,-0.0936,0.3019,0.0138,-0.1502,0.0447,854.5264,1.0200,-32.2800,-46.6800,-90.510,-37.033,-23.210,49.17413001,-121.68320468,1.16999996,
0.0420,0.3147,0.6024,0.7338,0.0168,-0.0936,0.3019,0.0138,-0.1502,0.0447,854.5264,1.0800,-32.2800,-46.6800,-90.550,-37.033,-23.210,49.17413001,-121.68320468,1.16999996,
0.0430,0.3147,0.6024,0.7338,0.0168,-0.0936,0.3019,-0.1150,-0.0778,0.0373,854.5264,1.0800,-32.2800,-46.6800,-90.550,-37.033,-23.210,49.17413001,-121.68320468,1.16999996,
0.0800,0.3147,0.6024,0.7338,-0.1488,-0.0709,0.1186,-0.1150,-0.0778,0.0373,854.5264,1.0800,-32.2800,-46.6800,-90.550,-37.033,-23.210,49.17413001,-121.68320468,1.16999996,
0.1020,0.2971,0.6058,0.6708,-0.1488,-0.0709,0.1186,-0.1150,-0.0778,0.0373,854.5264,1.0800,-32.2800,-46.6800,-84.235,-39.549,-23.887,49.17413001,-121.68320468,1.16999996,
0.1030,0.2971,0.6058,0.6708,-0.1488,-0.0709,0.1186,-0.1150,-0.0778,0.0373,854.5264,1.0800,-32.2800,-46.6800,-84.235,-39.549,-23.887,49.17413001,-121.68320468,1.16999996,
0.1040,0.2971,0.6058,0.6708,-0.1488,-0.0709,0.1186,0.0458,0.0277,0.0352,854.5264,1.0800,-32.2800,-46.6800,-84.235,-39.549,-23.887,49.17413001,-121.68320468,1.16999996,
0.1390,0.2971,0.6058,0.6708,-0.3338,-0.0349,-0.4954,0.0458,0.0277,0.0352,854.5264,1.0800,-32.2800,-46.6800,-84.235,-39.549,-23.887,49.17413001,-121.68320468,1.16999996,
0.1620,0.3196,0.5916,0.7377,-0.3338,-0.0349,-0.4954,0.0458,0.0277,0.0352,854.5264,1.0800,-32.2800,-46.6800,-92.534,-36.349,-23.420,49.17413001,-121.68320468,1.16999996,
0.1630,0.3196,0.5916,0.7377,-0.3338,-0.0349,-0.4954,0.0458,0.0277,0.0352,854.5264,1.1400,-32.2800,-46.6800,-92.568,-36.349,-23.420,49.17413001,-121.68320468,1.16999996,
0.1640,0.3196,0.5916,0.7377,-0.3338,-0.0349,-0.4954,-0.0671,-0.0256,0.0160,854.5264,1.1400,-32.2800,-46.6800,-92.568,-36.349,-23.420,49.17413001,-121.68320468,1.16999996,
0.1650,0.3196,0.5916,0.7377,-0.3338,-0.0349,-0.4954,-0.0671,-0.0256,0.0160,854.3608,1.1400,-32.2800,-46.6800,-92.568,-36.349,-23.420,49.17413001,-121.68320468,1.16999996,
0.1660,0.3196,0.5916,0.7377,-0.3338,-0.0349,-0.4954,-0.0671,-0.0256,0.0160,854.3608,1.1400,-32.2800,-46.6800,-92.568,-36.349,-23.420,49.17413001,-121.68320468,1.16999996,
0.1990,0.3196,0.5916,0.7377,-0.1202,-0.1540,0.1469,-0.0671,-0.0256,0.0160,854.3608,1.1400,-32.2800,-46.6800,-92.568,-36.349,-23.420,49.17413001,-121.68320468,1.16999996,
0.2210,0.3171,0.5936,0.6762,-0.1202,-0.1540,0.1469,-0.0671,-0.0256,0.0160,854.3608,1.1400,-32.2800,-46.6800,-88.007,-38.478,-25.125,49.17413001,-121.68320468,1.16999996,
0.2220,0.3171,0.5936,0.6762,-0.1202,-0.1540,0.1469,-0.0671,-0.0256,0.0160,854.3608,1.2000,-32.2800,-46.7400,-87.966,-38.478,-25.125,49.17413001,-121.68320468,1.16999996,
0.2230,0.3171,0.5936,0.6762,-0.1202,-0.1540,0.1469,0.0107,0.0075,0.0266,854.3608,1.2000,-32.2800,-46.7400,-87.966,-38.478,-25.125,49.17413001,-121.68320468,1.16999996,
0.2590,0.3171,0.5936,0.6762,-0.1631,-0.1281,-0.4533,0.0107,0.0075,0.0266,854.3608,1.2000,-32.2800,-46.7400,-87.966,-38.478,-25.125,49.17413001,-121.68320468,1.16999996,
0.2810,0.3230,0.5941,0.7148,-0.1631,-0.1281,-0.4533,0.0107,0.0075,0.0266,854.3608,1.2000,-32.2800,-46.7400,-90.882,-37.141,-24.316,49.17413001,-121.68320468,1.16999996,
0.2830,0.3230,0.5941,0.7148,-0.1631,-0.1281,-0.4533,0.0107,0.0075,0.0266,854.3608,1.2000,-32.2800,-46.7400,-90.882,-37.141,-24.316,49.17413001,-121.68320468,1.16999996,
0.2840,0.3230,0.5941,0.7148,-0.1631,-0.1281,-0.4533,-0.0043,-0.0170,0.0533,854.3608,1.2000,-32.2800,-46.7400,-90.882,-37.141,-24.316,49.17413001,-121.68320468,1.16999996,
0.3190,0.3230,0.5941,0.7148,-0.1225,-0.1195,-0.0704,-0.0043,-0.0170,0.0533,854.3608,1.2000,-32.2800,-46.7400,-90.882,-37.141,-24.316,49.17413001,-121.68320468,1.16999996,
0.3410,0.3508,0.5990,0.6772,-0.1225,-0.1195,-0.0704,-0.0043,-0.0170,0.0533,854.3608,1.2000,-32.2800,-46.7400,-90.237,-38.146,-27.388,49.17413001,-121.68320468,1.16999996,
0.3430,0.3508,0.5990,0.6772,-0.1225,-0.1195,-0.0704,-0.0043,-0.0170,0.0533,854.3608,1.2600,-32.2200,-46.8000,-90.076,-38.146,-27.388,49.17413001,-121.68320468,1.16999996,
0.3440,0.3508,0.5990,0.6772,-0.1225,-0.1195,-0.0704,-0.0107,-0.0085,0.1119,854.3608,1.2600,-32.2200,-46.8000,-90.076,-38.146,-27.388,49.17413001,-121.68320468,1.16999996,
0.3450,0.3508,0.5990,0.6772,-0.1225,-0.1195,-0.0704,-0.0107,-0.0085,0.1119,854.3577,1.2600,-32.2200,-46.8000,-90.076,-38.146,-27.388,49.17413001,-121.68320468,1.16999996,
0.3460,0.3508,0.5990,0.6772,-0.1225,-0.1195,-0.0704,-0.0107,-0.0085,0.1119,854.3577,1.2600,-32.2200,-46.8000,-90.076,-38.146,-27.388,49.17413001,-121.68320468,1.16999996,
0.3790,0.3508,0.5990,0.6772,0.1443,-0.0432,-0.4600,-0.0107,-0.0085,0.1119,854.3577,1.2600,-32.2200,-46.8000,-90.076,-38.146,-27.388,49.17413001,-121.68320468,1.16999996,
0.4020,0.3308,0.5897,0.6552,0.1443,-0.0432,-0.4600,-0.0107,-0.0085,0.1119,854.3577,1.2600,-32.2200,-46.8000,-88.211,-38.781,-26.789,49.17413001,-121.68320468,1.16999996,
0.4030,0.3308,0.5897,0.6552,0.1443,-0.0432,-0.4600,-0.0107,-0.0085,0.1119,854.3577,1.2000,-32.1600,-46.8600,-87.958,-38.781,-26.789,49.17413001,-121.68320468,1.16999996,
0.4040,0.3308,0.5897,0.6552,0.1443,-0.0432,-0.4600,-0.0394,0.0916,0.1417,854.3577,1.2000,-32.1600,-46.8600,-87.958,-38.781,-26.789,49.17413001,-121.68320468,1.16999996,
0.4390,0.3308,0.5897,0.6552,-0.0498,-0.0628,-0.7354,-0.0394,0.0916,0.1417,854.3577,1.2000,-32.1600,-46.8600,-87.958,-38.781,-26.789,49.17413001,-121.68320468,1.16999996,
0.4610,0.2844,0.5853,0.7123,-0.0498,-0.0628,-0.7354,-0.0394,0.0916,0.1417,854.3577,1.2000,-32.1600,-46.8600,-88.250,-37.347,-21.762,49.17413001,-121.68320468,1.16999996,
0.4630,0.2844,0.5853,0.7123,-0.0498,-0.0628,-0.7354,-0.0394,0.0916,0.1417,854.3577,1.2600,-32.1000,-46.8600,-88.149,-37.347,-21.762,49.17413001,-121.68320468,1.16999996,
0.4650,0.2844,0.5853,0.7123,-0.0498,-0.0628,-0.7354,0.0266,0.6711,0.4027,854.3577,1.2600,-32.1000,-46.8600,-88.149,-37.347,-21.762,49.17413001,-121.68320468,1.16999996,
0.4990,0.2844,0.5853,0.7123,-0.3065,-0.0654,-0.2955,0.0266,0.6711,0.4027,854.3577,1.2600,-32.1000,-46.8600,-88.149,-37.347,-21.762,49.17413001,-121.68320468,1.16999996,
0.5210,0.1441,0.6102,0.6307,-0.3065,-0.0654,-0.2955,0.0266,0.6711,0.4027,854.3577,1.2600,-32.1000,-46.8600,-56.241,-43.324,-12.873,49.17413001,-121.68320468,1.16999996,
0.5230,0.1441,0.6102,0.6307,-0.3065,-0.0654,-0.2955,0.0266,0.6711,0.4027,854.3577,1.2000,-32.0400,-46.9800,-55.719,-43.324,-12.873,49.17413001,-121.68320468,1.16999996,
0.5240,0.1441,0.6102,0.6307,-0.3065,-0.0654,-0.2955,-0.3792,0.8810,0.7318,854.3577,1.2000,-32.0400,-46.9800,-55.719,-43.324,-12.873,49.17413001,-121.68320468,1.16999996,
0.5250,0.1441,0.6102,0.6307,-0.3065,-0.0654,-0.2955,-0.3792,0.8810,0.7318,854.3547,1.2000,-32.0400,-46.9800,-55.719,-43.324,-12.873,49.17413001,-121.68320468,1.16999996,
0.5260,0.1441,0.6102,0.6307,-0.3065,-0.0654,-0.2955,-0.3792,0.8810,0.7318,854.3547,1.2000,-32.0400,-46.9800,-55.719,-43.324,-12.873,49.17413001,-121.68320468,1.16999996,
0.5590,0.1441,0.6102,0.6307,-1.3934,0.4457,-1.4127,-0.3792,0.8810,0.7318,854.3547,1.2000,-32.0400,-46.9800,-55.719,-43.324,-12.873,49.17413001,-121.68320468,1.16999996,
0.5800,0.0806,0.5017,0.6659,-1.3934,0.4457,-1.4127,-0.3792,0.8810,0.7318,854.3547,1.2000,-32.0400,-46.9800,-72.219,-36.797,-6.903,49.17413001,-121.68320468,1.16999996,
0.5830,0.0806,0.5017,0.6659,-1.3934,0.4457,-1.4127,-0.3792,0.8810,0.7318,854.3547,1.2000,-31.9800,-47.0400,-71.603,-36.797,-6.903,49.17413001,-121.68320468,1.16999996,
0.5840,0.0806,0.5017,0.6659,-1.3934,0.4457,-1.4127,-0.5582,1.5872,1.8653,854.3547,1.2000,-31.9800,-47.0400,-71.603,-36.797,-6.903,49.17413001,-121.68320468,1.16999996,
0.6180,0.0806,0.5017,0.6659,-1.8858,-0.0050,-1.5228,-0.5582,1.5872,1.8653,854.3547,1.2000,-31.9800,-47.0400,-71.603,-36.797,-6.903,49.17413001,-121.68320468,1.16999996,
0.6410,0.2419,0.3415,0.7475,-1.8858,-0.0050,-1.5228,-0.5582,1.5872,1.8653,854.3547,1.2000,-31.9800,-47.0400,-126.681,-23.491,-17.929,49.17413001,-121.68320468,1.16999996,
0.6420,0.2419,0.3415,0.7475,-1.8858,-0.0050,-1.5228,-0.5582,1.5872,1.8653,854.3547,1.2000,-31.9200,-47.1000,-126.465,-23.491,-17.929,49.17413001,-121.68320468,1.16999996,
0.6430,0.2419,0.3415,0.7475,-1.8858,-0.0050,-1.5228,-0.9523,1.6320,2.2040,854.3547,1.2000,-31.9200,-47.1000,-126.465,-23.491,-17.929,49.17413001,-121.68320468,1.16999996,
0.6780,0.2419,0.3415,0.7475,0.0222,-0.7137,-1.2867,-0.9523,1.6320,2.2040,854.3547,1.2000,-31.9200,-47.1000,-126.465,-23.491,-17.929,49.17413001,-121.68320468,1.16999996,
0.7010,0.2326,0.1905,0.8858,0.0222,-0.7137,-1.2867,-0.9523,1.6320,2.2040,854.3547,1.2000,-31.9200,-47.1000,-149.227,-11.750,-14.712,49.17412109,-121.68317345,0.00000000,
0.7020,0.2326,0.1905,0.8858,0.0222,-0.7137,-1.2867,-0.9523,1.6320,2.2040,854.3547,1.2000,-31.8600,-47.2200,-149.074,-11.750,-14.712,49.17412109,-121.68317345,0.00000000,
0.7030,0.2326,0.1905,0.8858,0.0222,-0.7137,-1.2867,-0.5603,1.6267,2.2829,854.3547,1.2000,-31.8600,-47.2200,-149.074,-11.750,-14.712,49.17412109,-121.68317345,0.00000000,
0.7040,0.2326,0.1905,0.8858,0.0222,-0.7137,-1.2867,-0.5603,1.6267,2.2829,854.3762,1.2000,-31.8600,-47.2200,-149.074,-11.750,-14.712,49.17412109,-121.68317345,0.00000000,
0.7050,0.2326,0.1905,0.8858,0.0222,-0.7137,-1.2867,-0.5603,1.6267,2.2829,854.3762,1.2000,-31.8600,-47.2200,-149.074,-11.750,-14.712,49.17412109,-121.68317345,0.00000000,
0.7390,0.2326,0.1905,0.8858,0.2467,-1.6782,-0.2339,-0.5603,1.6267,2.2829,854.3762,1.2000,-31.8600,-47.2200,-149.074,-11.750,-14.712,49.17412109,-121.68317345,0.00000000,
0.7590,0.2033,0.2633,0.9855,0.2467,-1.6782,-0.2339,-0.5603,1.6267,2.2829,854.3762,1.2000,-31.8600,-47.2200,-150.807,-14.664,-11.654,49.17412109,-121.68317345,0.00000000,
0.7600,0.2033,0.2633,0.9855,0.2467,-1.6782,-0.2339,-0.5603,1.6267,2.2829,854.3762,1.2000,-31.6800,-47.2800,-150.537,-14.664,-11.654,49.17412109,-121.68317345,0.00000000,
0.7620,0.2033,0.2633,0.9855,0.2467,-1.6782,-0.2339,-0.2397,2.8464,1.6714,854.3762,1.2000,-31.6800,-47.2800,-150.537,-14.664,-11.654,49.17412109,-121.68317345,0.00000000,
0.7980,0.2033,0.2633,0.9855,1.1659,-0.7403,0.4673,-0.2397,2.8464,1.6714,854.3762,1.2000,-31.6800,-47.2800,-150.537,-14.664,-11.654,49.17412109,-121.68317345,0.00000000,
0.8200,0.0977,0.2359,1.0143,1.1659,-0.7403,0.4673,-0.2397,2.8464,1.6714,854.3762,1.2000,-31.6800,-47.2800,-164.221,-13.037,-5.503,49.17412109,-121.68317345,0.00000000,
0.8220,0.0977,0.2359,1.0143,1.1659,-0.7403,0.4673,-0.2397,2.8464,1.6714,854.3762,1.3800,-31.5000,-47.4600,-163.546,-13.037,-5.503,49.17412109,-121.68317345,0.00000000,
0.8230,0.0977,0.2359,1.0143,1.1659,-0.7403,0.4673,-1.7598,1.4466,0.6871,854.3762,1.3800,-31.5000,-47.4600,-163.546,-13.037,-5.503,49.17412109,-121.68317345,0.00000000,
0.8580,0.0977,0.2359,1.0143,0.9166,0.0871,0.3893,-1.7598,1.4466,0.6871,854.3762,1.3800,-31.5000,-47.4600,-163.546,-13.037,-5.503,49.17412109,-121.68317345,0.00000000,
0.8800,0.0151,0.1680,1.3886,0.9166,0.0871,0.3893,-1.7598,1.4466,0.6871,854.3762,1.3800,-31.5000,-47.4600,-175.756,-6.899,-0.625,49.17412109,-121.68317345,0.00000000,
0.8810,0.0151,0.1680,1.3886,0.9166,0.0871,0.3893,-1.7598,1.4466,0.6871,854.3762,1.6800,-31.2000,-47.5800,-175.025,-6.899,-0.625,49.17412109,-121.68317345,0.00000000,
0.8820,0.0151,0.1680,1.3886,0.9166,0.0871,0.3893,-0.2077,1.3092,1.2432,854.3762,1.6800,-31.2000,-47.5800,-175.025,-6.899,-0.625,49.17412109,-121.68317345,0.00000000,
0.8830,0.0151,0.1680,1.3886,0.9166,0.0871,0.3893,-0.2077,1.3092,1.2432,854.3721,1.6800,-31.2000,-47.5800,-175.025,-6.899,-0.625,49.17412109,-121.68317345,0.00000000,
0.8840,0.0151,0.1680,1.3886,0.9166,0.0871,0.3893,-0.2077,1.3092,1.2432,854.3721,1.6800,-31.2000,-47.5800,-175.025,-6.899,-0.625,49.17412109,-121.68317345,0.00000000,
0.9180,0.0151,0.1680,1.3886,0.7746,-0.6600,4.0971,-0.2077,1.3092,1.2432,854.3721,1.6800,-31.2000,-47.5800,-175.025,-6.899,-0.625,49.17412109,-121.68317345,0.00000000,
0.9390,0.1060,0.2701,0.8096,0.7746,-0.6600,4.0971,-0.2077,1.3092,1.2432,854.3721,1.6800,-31.2000,-47.5800,-152.187,-18.307,-7.462,49.17412109,-121.68317345,0.00000000,
0.9400,0.1060,0.2701,0.8096,0.7746,-0.6600,4.0971,-0.2077,1.3092,1.2432,854.3721,2.2200,-30.8400,-47.8200,-149.842,-18.307,-7.462,49.17412109,-121.68317345,0.00000000,
0.9410,0.1060,0.2701,0.8096,0.7746,-0.6600,4.0971,0.2663,0.8075,0.4964,854.3721,2.2200,-30.8400,-47.8200,-149.842,-18.307,-7.462,49.17412109,-121.68317345,0.00000000,
0.9770,0.1060,0.2701,0.8096,1.8164,0.1890,-1.5278,0.2663,0.8075,0.4964,854.3721,2.2200,-30.8400,-47.8200,-149.842,-18.307,-7.462,49.17412109,-121.68317345,0.00000000,
0.9990,-0.0264,0.0630,1.1667,1.8164,0.1890,-1.5278,0.2663,0.8075,0.4964,854.3721,2.2200,-30.8400,-47.8200,-177.690,-3.089,1.295,49.17412109,-121.68317345,0.00000000,
1.0000,-0.0264,0.0630,1.1667,1.8164,0.1890,-1.5278,0.2663,0.8075,0.4964,854.3721,2.9400,-30.3600,-48.0000,-176.174,-3.089,1.295,49.17412109,-121.68317345,0.00000000,
1.0010,-0.0264,0.0630,1.1667,1.8164,0.1890,-1.5278,-0.6157,0.1001,-0.1204,854.3721,2.9400,-30.3600,-48.0000,-176.174,-3.089,1.295,49.17412109,-121.68317345,0.00000000,
1.0370,-0.0264,0.0630,1.1667,0.4042,-1.2358,1.8269,-0.6157,0.1001,-0.1204,854.3721,2.9400,-30.3600,-48.0000,-176.174,-3.089,1.295,49.17412109,-121.68317345,0.00000000,
1.0600,-0.1055,0.1490,1.0558,0.4042,-1.2358,1.8269,-0.6157,0.1001,-0.1204,854.3721,2.9400,-30.3600,-48.0000,175.479,-7.991,5.708,49.17412109,-121.68317345,0.00000000,
1.0610,-0.1055,0.1490,1.0558,0.4042,-1.2358,1.8269,-0.6157,0.1001,-0.1204,854.3721,3.8400,-29.8200,-48.1800,177.562,-7.991,5.708,49.17412109,-121.68317345,0.00000000,
1.0620,-0.1055,0.1490,1.0558,0.4042,-1.2358,1.8269,0.3633,-0.6583,0.7329,854.3721,3.8400,-29.8200,-48.1800,177.562,-7.991,5.708,49.17412109,-121.68317345,0.00000000,
1.0630,-0.1055,0.1490,1.0558,0.4042,-1.2358,1.8269,0.3633,-0.6583,0.7329,854.5674,3.8400,-29.8200,-48.1800,177.562,-7.991,5.708,49.17412109,-121.68317345,0.00000000,
1.0640,-0.1055,0.1490,1.0558,0.4042,-1.2358,1.8269,0.3633,-0.6583,0.7329,854.5674,3.8400,-29.8200,-48.1800,177.562,-7.991,5.708,49.17412109,-121.68317345,0.00000000,
1.0970,-0.1055,0.1490,1.0558,-1.0292,-0.5768,0.7543,0.3633,-0.6583,0.7329,854.5674,3.8400,-29.8200,-48.1800,177.562,-7.991,5.708,49.17412109,-121.68317345,0.00000000,
1.1180,0.1881,0.1045,1.1013,-1.0292,-0.5768,0.7543,0.3633,-0.6583,0.7329,854.5674,3.8400,-29.8200,-48.1800,-154.838,-5.344,-9.694,49.17412109,-121.68317345,0.00000000,
1.1190,0.1881,0.1045,1.1013,-1.0292,-0.5768,0.7543,0.3633,-0.6583,0.7329,854.5674,4.7400,-29.2200,-48.3000,-152.628,-5.344,-9.694,49.17412109,-121.68317345,0.00000000,
1.1200,0.1881,0.1045,1.1013,-1.0292,-0.5768,0.7543,-1.4679,-1.6948,1.5489,854.5674,4.7400,-29.2200,-48.3000,-152.628,-5.344,-9.694,49.17412109,-121.68317345,0.00000000,
1.1570,0.1881,0.1045,1.1013,0.7903,0.0851,1.0879,-1.4679,-1.6948,1.5489,854.5674,4.7400,-29.2200,-48.3000,-152.628,-5.344,-9.694,49.17412109,-121.68317345,0.00000000,
1.1780,0.3259,-0.4339,1.1091,0.7903,0.0851,1.0879,-1.4679,-1.6948,1.5489,854.5674,4.7400,-29.2200,-48.3000,-157.181,20.576,-16.375,49.17412109,-121.68317345,0.00000000,
1.1800,0.3259,-0.4339,1.1091,0.7903,0.0851,1.0879,-1.4679,-1.6948,1.5489,854.5674,5.5800,-28.6200,-48.4200,-155.942,20.576,-16.375,49.17412109,-121.68317345,0.00000000,
1.1810,0.3259,-0.4339,1.1091,0.7903,0.0851,1.0879,-3.3002,-2.5066,0.9960,854.5674,5.5800,-28.6200,-48.4200,-155.942,20.576,-16.375,49.17412109,-121.68317345,0.00000000,
1.2190,0.3259,-0.4339,1.1091,0.5710,-3.1217,1.4876,-3.3002,-2.5066,0.9960,854.5674,5.5800,-28.6200,-48.4200,-155.942,20.576,-16.375,49.17412109,-121.68317345,0.00000000,
1.2490,0.6166,-0.4496,1.2273,0.5710,-3.1217,1.4876,-3.3002,-2.5066,0.9960,854.5674,5.5800,-28.6200,-48.4200,-146.174,18.124,-26.676,49.17412109,-121.68317345,0.00000000,
1.2590,0.6166,-0.4496,1.2273,0.5710,-3.1217,1.4876,-3.3002,-2.5066,0.9960,854.5674,5.9400,-27.6000,-48.8400,-145.057,18.124,-26.676,49.17412109,-121.68317345,0.00000000,
1.2630,0.6166,-0.4496,1.2273,0.5710,-3.1217,1.4876,-2.4384,-2.8016,0.7009,854.5674,5.9400,-27.6000,-48.8400,-145.057,18.124,-26.676,49.17412109,-121.68317345,0.00000000,
1.2670,0.6166,-0.4496,1.2273,0.5710,-3.1217,1.4876,-2.4384,-2.8016,0.7009,854.3501,5.9400,-27.6000,-48.8400,-145.057,18.124,-26.676,49.17412109,-121.68317345,0.00000000,
1.2710,0.6166,-0.4496,1.2273,0.5710,-3.1217,1.4876,-2.4384,-2.8016,0.7009,854.3501,5.9400,-27.6000,-48.8400,-145.057,18.124,-26.676,49.17412109,-121.68317345,0.00000000,
1.2800,0.6166,-0.4496,1.2273,2.1088,-2.0087,3.3707,-2.4384,-2.8016,0.7009,854.3501,5.9400,-27.6000,-48.8400,-145.057,18.124,-26.676,49.17412109,-121.68317345,0.00000000,
1.3070,0.3347,-0.5087,0.8110,2.1088,-2.0087,3.3707,-2.4384,-2.8016,0.7009,854.3501,5.9400,-27.6000,-48.8400,-152.010,30.105,-22.425,49.17412109,-121.68317345,0.00000000,
1.3110,0.3347,-0.5087,0.8110,2.1088,-2.0087,3.3707,-2.4384,-2.8016,0.7009,854.3501,5.4600,-25.8000,-49.4400,-151.591,30.105,-22.425,49.17412109,-121.68317345,0.00000000,
1.3150,0.3347,-0.5087,0.8110,2.1088,-2.0087,3.3707,-1.0834,-2.6941,1.0365,854.3501,5.4600,-25.8000,-49.4400,-151.591,30.105,-22.425,49.17412109,-121.68317345,0.00000000,
1.3400,0.3347,-0.5087,0.8110,-1.7231,-1.7495,0.1592,-1.0834,-2.6941,1.0365,854.3501,5.4600,-25.8000,-49.4400,-151.591,30.105,-22.425,49.17412109,-121.68317345,0.00000000,
1.3650,0.4051,-0.4115,0.8804,-1.7231,-1.7495,0.1592,-1.0834,-2.6941,1.0365,854.3501,5.4600,-25.8000,-49.4400,-147.621,23.005,-24.706,49.17412109,-121.68317345,0.00000000,
1.3660,0.4051,-0.4115,0.8804,-1.7231,-1.7495,0.1592,-1.0834,-2.6941,1.0365,854.3501,4.3800,-23.7600,-49.8600,-147.433,23.005,-24.706,49.17412109,-121.68317345,0.00000000,
1.3680,0.4051,-0.4115,0.8804,-1.7231,-1.7495,0.1592,-1.9143,-2.5087,0.9204,854.3501,4.3800,-23.7600,-49.8600,-147.433,23.005,-24.706,49.17412109,-121.68317345,0.00000000,
1.3980,0.4051,-0.4115,0.8804,-1.8948,0.2516,2.0383,-1.9143,-2.5087,0.9204,854.3501,4.3800,-23.7600,-49.8600,-147.433,23.005,-24.706,49.17412109,-121.68317345,0.00000000,
1.4250,0.4691,-0.1965,0.6864,-1.8948,0.2516,2.0383,-1.9143,-2.5087,0.9204,854.3501,4.3800,-23.7600,-49.8600,-135.248,13.297,-34.346,49.17412109,-121.68317345,0.00000000,
1.4290,0.4691,-0.1965,0.6864,-1.8948,0.2516,2.0383,-1.9143,-2.5087,0.9204,854.3501,2.8800,-21.4200,-50.3400,-134.295,13.297,-34.346,49.17412109,-121.68317345,0.00000000,
1.4320,0.4691,-0.1965,0.6864,-1.8948,0.2516,2.0383,-0.8842,-1.9729,1.0908,854.3501,2.8800,-21.4200,-50.3400,-134.295,13.297,-34.346,49.17412109,-121.68317345,0.00000000,
1.4350,0.4691,-0.1965,0.6864,-1.8948,0.2516,2.0383,-0.8842,-1.9729,1.0908,854.5337,2.8800,-21.4200,-50.3400,-134.295,13.297,-34.346,49.17412109,-121.68317345,0.00000000,
1.4380,0.4691,-0.1965,0.6864,-1.8948,0.2516,2.0383,-0.8842,-1.9729,1.0908,854.5337,2.8800,-21.4200,-50.3400,-134.295,13.297,-34.346,49.17412109,-121.68317345,0.00000000,
1.4600,0.4691,-0.1965,0.6864,-1.6579,2.9832,0.9866,-0.8842,-1.9729,1.0908,854.5337,2.8800,-21.4200,-50.3400,-134.295,13.297,-34.346,49.17412109,-121.68317345,0.00000000,
1.4890,0.4832,-0.3426,0.5472,-1.6579,2.9832,0.9866,-0.8842,-1.9729,1.0908,854.5337,2.8800,-21.4200,-50.3400,-134.288,25.139,-41.449,49.17412109,-121.68317345,0.00000000,
1.4930,0.4832,-0.3426,0.5472,-1.6579,2.9832,0.9866,-0.8842,-1.9729,1.0908,854.5337,1.3200,-18.8400,-50.5800,-133.569,25.139,-41.449,49.17412109,-121.68317345,0.00000000,
1.4960,0.4832,-0.3426,0.5472,-1.6579,2.9832,0.9866,-0.3068,-1.0109,0.0597,854.5337,1.3200,-18.8400,-50.5800,-133.569,25.139,-41.449,49.17412109,-121.68317345,0.00000000,
1.5190,0.4832,-0.3426,0.5472,-1.7820,1.5528,-0.0763,-0.3068,-1.0109,0.0597,854.5337,1.3200,-18.8400,-50.5800,-133.569,25.139,-41.449,49.17412109,-121.68317345,0.00000000,
1.5440,0.5404,-0.4173,0.6263,-1.7820,1.5528,-0.0763,-0.3068,-1.0109,0.0597,854.5337,1.3200,-18.8400,-50.5800,-134.696,26.770,-40.788,49.17412109,-121.68317345,0.00000000,
1.5480,0.5404,-0.4173,0.6263,-1.7820,1.5528,-0.0763,-0.3068,-1.0109,0.0597,854.5337,-0.4200,-16.1400,-50.7000,-134.133,26.770,-40.788,49.17412109,-121.68317345,0.00000000,
1.5510,0.5404,-0.4173,0.6263,-1.7820,1.5528,-0.0763,0.1502,0.3462,-0.8192,854.5337,-0.4200,-16.1400,-50.7000,-134.133,26.770,-40.788,49.17412109,-121.68317345,0.00000000,
1.5790,0.5404,-0.4173,0.6263,-1.2213,0.3294,0.2930,0.1502,0.3462,-0.8192,854.5337,-0.4200,-16.1400,-50.7000,-134.133,26.770,-40.788,49.17412109,-121.68317345,0.00000000,
1.6140,0.6376,-0.2761,0.5789,-1.2213,0.3294,0.2930,0.1502,0.3462,-0.8192,854.5337,-0.4200,-16.1400,-50.7000,-124.776,17.776,-47.762,49.17412109,-121.68317345,0.00000000,
1.6280,0.6376,-0.2761,0.5789,-1.2213,0.3294,0.2930,0.1502,0.3462,-0.8192,854.5337,-2.2800,-13.3200,-50.8200,-123.212,17.776,-47.762,49.17412109,-121.68317345,0.00000000,
1.6330,0.6376,-0.2761,0.5789,-1.2213,0.3294,0.2930,0.3356,2.9518,-1.8631,854.5337,-2.2800,-13.3200,-50.8200,-123.212,17.776,-47.762,49.17412109,-121.68317345,0.00000000,
1.6380,0.6376,-0.2761,0.5789,-1.2213,0.3294,0.2930,0.3356,2.9518,-1.8631,854.3235,-2.2800,-13.3200,-50.8200,-123.212,17.776,-47.762,49.17412109,-121.68317345,0.00000000,
1.6420,0.6376,-0.2761,0.5789,-1.2213,0.3294,0.2930,0.3356,2.9518,-1.8631,854.3235,-2.2800,-13.3200,-50.8200,-123.212,17.776,-47.762,49.17412109,-121.68317345,0.00000000,
1.6470,0.6376,-0.2761,0.5789,0.5162,0.8083,-1.4647,0.3356,2.9518,-1.8631,854.3235,-2.2800,-13.3200,-50.8200,-123.212,17.776,-47.762,49.17412109,-121.68317345,0.00000000,
1.6590,0.5428,-0.3499,0.4778,0.5162,0.8083,-1.4647,0.3356,2.9518,-1.8631,854.3235,-2.2800,-13.3200,-50.8200,-126.748,25.820,-48.647,49.17412109,-121.68317345,0.00000000,
1.6660,0.5428,-0.3499,0.4778,0.5162,0.8083,-1.4647,0.3356,2.9518,-1.8631,854.3235,-4.1400,-10.6800,-50.9400,-125.822,25.820,-48.647,49.17412109,-121.68317345,0.00000000,
1.6680,0.5428,-0.3499,0.4778,0.5162,0.8083,-1.4647,0.8064,4.0906,-2.6461,854.3235,-4.1400,-10.6800,-50.9400,-125.822,25.820,-48.647,49.17412109,-121.68317345,0.00000000,
1.7000,0.5428,-0.3499,0.4778,0.9637,-1.1686,-3.8078,0.8064,4.0906,-2.6461,854.3235,-4.1400,-10.6800,-50.9400,-125.822,25.820,-48.647,49.17412109,-121.68317345,0.00000000,
1.7210,0.1915,-0.2434,0.2579,0.9637,-1.1686,-3.8078,0.8064,4.0906,-2.6461,854.3235,-4.1400,-10.6800,-50.9400,-142.066,37.147,-36.598,49.17412109,-121.68317345,0.00000000,
1.7240,0.1915,-0.2434,0.2579,0.9637,-1.1686,-3.8078,0.8064,4.0906,-2.6461,854.3235,-5.4000,-8.4000,-51.3600,-141.914,37.147,-36.598,49.17412109,-121.68317345,0.00000000,
1.7260,0.1915,-0.2434,0.2579,0.9637,-1.1686,-3.8078,-0.4176,3.7721,-2.7249,854.3235,-5.4000,-8.4000,-51.3600,-141.914,37.147,-36.598,49.17412109,-121.68317345,0.00000000,
1.7650,0.1915,-0.2434,0.2579,-0.8688,-0.3141,-6.6561,-0.4176,3.7721,-2.7249,854.3235,-5.4000,-8.4000,-51.3600,-141.914,37.147,-36.598,49.17412109,-121.68317345,0.00000000,
1.7950,-0.2116,-0.2160,1.0075,-0.8688,-0.3141,-6.6561,-0.4176,3.7721,-2.7249,854.3235,-5.4000,-8.4000,-51.3600,139.146,11.852,11.860,49.17412109,-121.68317345,0.00000000,
1.8030,-0.2116,-0.2160,1.0075,-0.8688,-0.3141,-6.6561,-0.4176,3.7721,-2.7249,854.3235,-5.9400,-6.6000,-51.9000,135.278,11.852,11.860,49.17412109,-121.68317345,0.00000000,
1.8090,-0.2116,-0.2160,1.0075,-0.8688,-0.3141,-6.6561,-2.1976,3.0562,-1.6224,854.3235,-5.9400,-6.6000,-51.9000,135.278,11.852,11.860,49.17412109,-121.68317345,0.00000000,
1.8110,-0.2116,-0.2160,1.0075,-0.8688,-0.3141,-6.6561,-2.1976,3.0562,-1.6224,854.3821,-5.9400,-6.6000,-51.9000,135.278,11.852,11.860,49.17412109,-121.68317345,0.00000000,
1.8130,-0.2116,-0.2160,1.0075,-0.8688,-0.3141,-6.6561,-2.1976,3.0562,-1.6224,854.3821,-5.9400,-6.6000,-51.9000,135.278,11.852,11.860,49.17412109,-121.68317345,0.00000000,
1.8190,-0.2116,-0.2160,1.0075,-3.2732,0.9738,0.6439,-2.1976,3.0562,-1.6224,854.3821,-5.9400,-6.6000,-51.9000,135.278,11.852,11.860,49.17412109,-121.68317345,0.00000000,
1.8390,0.0103,-0.2722,1.2625,-3.2732,0.9738,0.6439,-2.1976,3.0562,-1.6224,854.3821,-5.9400,-6.6000,-51.9000,162.405,12.167,-0.466,49.17412109,-121.68317345,0.00000000,
1.8410,0.0103,-0.2722,1.2625,-3.2732,0.9738,0.6439,-2.1976,3.0562,-1.6224,854.3821,-5.8800,-4.3200,-52.3800,160.347,12.167,-0.466,49.17412109,-121.68317345,0.00000000,
1.8450,0.0103,-0.2722,1.2625,-3.2732,0.9738,0.6439,-1.3944,1.7609,-0.6796,854.3821,-5.8800,-4.3200,-52.3800,160.347,12.167,-0.466,49.17412109,-121.68317345,0.00000000,
1.8770,0.0103,-0.2722,1.2625,-0.2698,1.1036,3.3278,-1.3944,1.7609,-0.6796,854.3821,-5.8800,-4.3200,-52.3800,160.347,12.167,-0.466,49.17412109,-121.68317345,0.00000000,
1.9000,-0.2130,-0.4393,0.8775,-0.2698,1.1036,3.3278,-1.3944,1.7609,-0.6796,854.3821,-5.8800,-4.3200,-52.3800,144.725,25.944,13.646,49.17412109,-121.68317345,0.00000000,
1.9040,-0.2130,-0.4393,0.8775,-0.2698,1.1036,3.3278,-1.3944,1.7609,-0.6796,854.3821,-5.8800,-1.9200,-52.6800,142.350,25.944,13.646,49.17412109,-121.68317345,0.00000000,
1.9080,-0.2130,-0.4393,0.8775,-0.2698,1.1036,3.3278,-0.9683,3.9127,-1.2357,854.3821,-5.8800,-1.9200,-52.6800,142.350,25.944,13.646,49.17412109,-121.68317345,0.00000000,
1.9370,-0.2130,-0.4393,0.8775,-0.6122,0.0690,-0.0527,-0.9683,3.9127,-1.2357,854.3821,-5.8800,-1.9200,-52.6800,142.350,25.944,13.646,49.17412109,-121.68317345,0.00000000,
1.9660,0.0396,-0.3362,0.9581,-0.6122,0.0690,-0.0527,-0.9683,3.9127,-1.2357,854.3821,-5.8800,-1.9200,-52.6800,169.150,19.322,-2.365,49.17412109,-121.68317345,0.00000000,
1.9700,0.0396,-0.3362,0.9581,-0.6122,0.0690,-0.0527,-0.9683,3.9127,-1.2357,854.3821,-5.8200,0.5400,-52.8000,167.945,19.322,-2.365,49.17412109,-121.68317345,0.00000000,
1.9720,0.0396,-0.3362,0.9581,-0.6122,0.0690,-0.0527,-0.2780,0.9215,0.2344,854.3821,-5.8200,0.5400,-52.8000,167.945,19.322,-2.365,49.17412109,-121.68317345,0.00000000,
1.9770,0.0396,-0.3362,0.9581,-0.6122,0.0690,-0.0527,-0.2780,0.9215,0.2344,854.4377,-5.8200,0.5400,-52.8000,167.945,19.322,-2.365,49.17412109,-121.68317345,0.00000000,
1.9800,0.0396,-0.3362,0.9581,-0.6122,0.0690,-0.0527,-0.2780,0.9215,0.2344,854.4377,-5.8200,0.5400,-52.8000,167.945,19.322,-2.365,49.17412109,-121.68317345,0.00000000,
2.0000,0.0396,-0.3362,0.9581,2.2307,1.1103,0.8240,-0.2780,0.9215,0.2344,854.4377,-5.8200,0.5400,-52.8000,167.945,19.322,-2.365,49.17412109,-121.68317345,0.00000000,
2.0190,-0.3288,-0.4393,0.6855,2.2307,1.1103,0.8240,-0.2780,0.9215,0.2344,854.4377,-5.8200,0.5400,-52.8000,128.188,30.022,25.628,49.17412109,-121.68317345,0.00000000,
2.0220,-0.3288,-0.4393,0.6855,2.2307,1.1103,0.8240,-0.2780,0.9215,0.2344,854.4377,-5.4600,3.1200,-52.6800,125.660,30.022,25.628,49.17412109,-121.68317345,0.00000000,
2.0240,-0.3288,-0.4393,0.6855,2.2307,1.1103,0.8240,-0.3388,2.1114,-0.1140,854.4377,-5.4600,3.1200,-52.6800,125.660,30.022,25.628,49.17412109,-121.68317345,0.00000000,
2.0600,-0.3288,-0.4393,0.6855,-0.3430,0.2834,-1.4569,-0.3388,2.1114,-0.1140,854.4377,-5.4600,3.1200,-52.6800,125.660,30.022,25.628,49.17412109,-121.68317345,0.00000000,
2.0820,-0.4661,-0.4335,0.6659,-0.3430,0.2834,-1.4569,-0.3388,2.1114,-0.1140,854.4377,-5.4600,3.1200,-52.6800,114.875,28.069,34.992,49.17412109,-121.68317345,0.00000000,
2.0850,-0.4661,-0.4335,0.6659,-0.3430,0.2834,-1.4569,-0.3388,2.1114,-0.1140,854.4377,-4.8000,5.7600,-52.3200,112.116,28.069,34.992,49.17412109,-121.68317345,0.00000000,
2.0880,-0.4661,-0.4335,0.6659,-0.3430,0.2834,-1.4569,-0.7393,1.2442,0.0501,854.4377,-4.8000,5.7600,-52.3200,112.116,28.069,34.992,49.17412109,-121.68317345,0.00000000,
2.1170,-0.4661,-0.4335,0.6659,-1.0352,0.6828,-1.1796,-0.7393,1.2442,0.0501,854.4377,-4.8000,5.7600,-52.3200,112.116,28.069,34.992,49.17412109,-121.68317345,0.00000000,
2.1430,-0.5829,-0.4403,0.9586,-1.0352,0.6828,-1.1796,-0.7393,1.2442,0.0501,854.4377,-4.8000,5.7600,-52.3200,107.823,21.428,31.303,49.17412109,-121.68317345,0.00000000,
2.1460,-0.5829,-0.4403,0.9586,-1.0352,0.6828,-1.1796,-0.7393,1.2442,0.0501,854.4377,-3.8400,8.4600,-51.7800,104.059,21.428,31.303,49.17412109,-121.68317345,0.00000000,
2.1480,-0.5829,-0.4403,0.9586,-1.0352,0.6828,-1.1796,-0.0352,1.9771,0.2152,854.4377,-3.8400,8.4600,-51.7800,104.059,21.428,31.303,49.17412109,-121.68317345,0.00000000,
2.1510,-0.5829,-0.4403,0.9586,-1.0352,0.6828,-1.1796,-0.0352,1.9771,0.2152,854.3777,-3.8400,8.4600,-51.7800,104.059,21.428,31.303,49.17412109,-121.68317345,0.00000000,
2.1540,-0.5829,-0.4403,0.9586,-1.0352,0.6828,-1.1796,-0.0352,1.9771,0.2152,854.3777,-3.8400,8.4600,-51.7800,104.059,21.428,31.303,49.17412109,-121.68317345,0.00000000,
2.1770,-0.5829,-0.4403,0.9586,-1.1836,0.5035,2.1526,-0.0352,1.9771,0.2152,854.3777,-3.8400,8.4600,-51.7800,104.059,21.428,31.303,49.17412109,-121.68317345,0.00000000,
2.2010,-0.4109,-0.4540,0.7954,-1.1836,0.5035,2.1526,-0.0352,1.9771,0.2152,854.3777,-3.8400,8.4600,-51.7800,114.635,26.889,27.322,49.17412109,-121.68317345,0.00000000,
2.2040,-0.4109,-0.4540,0.7954,-1.1836,0.5035,2.1526,-0.0352,1.9771,0.2152,854.3777,-2.1000,10.8000,-50.8800,112.363,26.889,27.322,49.17412109,-121.68317345,0.00000000,
2.2070,-0.4109,-0.4540,0.7954,-1.1836,0.5035,2.1526,0.2450,0.3910,0.5401,854.3777,-2.1000,10.8000,-50.8800,112.363,26.889,27.322,49.17412109,-121.68317345,0.00000000,
2.2500,-0.4109,-0.4540,0.7954,0.6975,0.0902,0.4981,0.2450,0.3910,0.5401,854.3777,-2.1000,10.8000,-50.8800,112.363,26.889,27.322,49.17412109,-121.68317345,0.00000000,
2.2710,-0.4432,-0.4794,0.7939,0.6975,0.0902,0.4981,0.2450,0.3910,0.5401,854.3777,-2.1000,10.8000,-50.8800,111.869,27.800,29.170,49.17412109,-121.68317345,0.00000000,
2.2740,-0.4432,-0.4794,0.7939,0.6975,0.0902,0.4981,0.2450,0.3910,0.5401,854.3777,0.5400,12.3000,-49.6200,111.727,27.800,29.170,49.17412109,-121.68317345,0.00000000,
2.2760,-0.4432,-0.4794,0.7939,0.6975,0.0902,0.4981,0.1225,-1.6576,0.4165,854.3777,0.5400,12.3000,-49.6200,111.727,27.800,29.170,49.17412109,-121.68317345,0.00000000,
2.2950,-0.4432,-0.4794,0.7939,-0.2604,-0.2751,0.0385,0.1225,-1.6576,0.4165,854.3777,0.5400,12.3000,-49.6200,111.727,27.800,29.170,49.17412109,-121.68317345,0.00000000,
2.3240,-0.6279,-0.5947,0.9029,-0.2604,-0.2751,0.0385,0.1225,-1.6576,0.4165,854.3777,0.5400,12.3000,-49.6200,107.337,28.403,34.814,49.17412109,-121.68317345,0.00000000,
2.3250,-0.6279,-0.5947,0.9029,-0.2604,-0.2751,0.0385,0.1225,-1.6576,0.4165,854.3777,4.5600,13.6200,-47.3400,108.400,28.403,34.814,49.17412109,-121.68317345,0.00000000,
2.3260,-0.6279,-0.5947,0.9029,-0.2604,-0.2751,0.0385,0.0991,-1.6938,0.4261,854.3777,4.5600,13.6200,-47.3400,108.400,28.403,34.814,49.17412109,-121.68317345,0.00000000,
2.3280,-0.6279,-0.5947,0.9029,-0.2604,-0.2751,0.0385,0.0991,-1.6938,0.4261,854.3728,4.5600,13.6200,-47.3400,108.400,28.403,34.814,49.17412109,-121.68317345,0.00000000,
2.3290,-0.6279,-0.5947,0.9029,-0.2604,-0.2751,0.0385,0.0991,-1.6938,0.4261,854.3728,4.5600,13.6200,-47.3400,108.400,28.403,34.814,49.17412109,-121.68317345,0.00000000,
2.3560,-0.6279,-0.5947,0.9029,-2.5814,-1.5456,0.7815,0.0991,-1.6938,0.4261,854.3728,4.5600,13.6200,-47.3400,108.400,28.403,34.814,49.17412109,-121.68317345,0.00000000,
2.3790,-0.5702,-0.5375,0.7978,-2.5814,-1.5456,0.7815,0.0991,-1.6938,0.4261,854.3728,4.5600,13.6200,-47.3400,108.229,28.729,35.553,49.17412109,-121.68317345,0.00000000,
2.3820,-0.5702,-0.5375,0.7978,-2.5814,-1.5456,0.7815,0.0991,-1.6938,0.4261,854.3728,8.2200,14.6400,-46.2000,110.457,28.729,35.553,49.17412109,-121.68317345,0.00000000,
2.3840,-0.5702,-0.5375,0.7978,-2.5814,-1.5456,0.7815,0.0000,-0.0948,1.3103,854.3728,8.2200,14.6400,-46.2000,110.457,28.729,35.553,49.17412109,-121.68317345,0.00000000,
2.4160,-0.5702,-0.5375,0.7978,-1.6290,-1.2121,-0.1841,0.0000,-0.0948,1.3103,854.3728,8.2200,14.6400,-46.2000,110.457,28.729,35.553,49.17412109,-121.68317345,0.00000000,
2.4530,-0.2081,-0.3118,0.8379,-1.6290,-1.2121,-0.1841,0.0000,-0.0948,1.3103,854.3728,8.2200,14.6400,-46.2000,124.016,19.856,13.951,49.17412109,-121.68317345,0.00000000,
2.4590,-0.2081,-0.3118,0.8379,-1.6290,-1.2121,-0.1841,0.0000,-0.0948,1.3103,854.3728,12.0000,15.3000,-45.2400,-153.847,19.856,13.951,49.17412109,-121.68317345,0.00000000,
2.4650,-0.2081,-0.3118,0.8379,-1.6290,-1.2121,-0.1841,-0.0820,-0.2376,0.8607,854.3728,12.0000,15.3000,-45.2400,-153.847,19.856,13.951,49.17412109,-121.68317345,0.00000000,
2.4800,-0.2081,-0.3118,0.8379,1.9578,0.8529,0.1547,-0.0820,-0.2376,0.8607,854.3728,12.0000,15.3000,-45.2400,-153.847,19.856,13.951,49.17412109,-121.68317345,0.00000000,
2.5190,-0.2209,-0.3592,0.5902,1.9578,0.8529,0.1547,-0.0820,-0.2376,0.8607,854.3728,12.0000,15.3000,-45.2400,154.714,29.683,20.516,49.17412109,-121.68317345,0.00000000,
2.5250,-0.2209,-0.3592,0.5902,1.9578,0.8529,0.1547,-0.0820,-0.2376,0.8607,854.3728,15.9600,15.8400,-44.4000,176.344,29.683,20.516,49.17412109,-121.68317345,0.00000000,
2.5290,-0.2209,-0.3592,0.5902,1.9578,0.8529,0.1547,0.7499,-1.1974,0.0767,854.3728,15.9600,15.8400,-44.4000,176.344,29.683,20.516,49.17412109,-121.68317345,0.00000000,
2.5300,-0.2209,-0.3592,0.5902,1.9578,0.8529,0.1547,0.7499,-1.1974,0.0767,854.3613,15.9600,15.8400,-44.4000,176.344,29.683,20.516,49.17412109,-121.68317345,0.00000000,
2.5320,-0.2209,-0.3592,0.5902,1.9578,0.8529,0.1547,0.7499,-1.1974,0.0767,854.3613,15.9600,15.8400,-44.4000,176.344,29.683,20.516,49.17412109,-121.68317345,0.00000000,
2.5350,-0.2209,-0.3592,0.5902,1.2120,0.0963,-2.6833,0.7499,-1.1974,0.0767,854.3613,15.9600,15.8400,-44.4000,176.344,29.683,20.516,49.17412109,-121.68317345,0.00000000,
2.5580,-0.2257,-0.3177,0.8233,1.2120,0.0963,-2.6833,0.7499,-1.1974,0.0767,854.3613,15.9600,15.8400,-44.4000,-113.140,20.411,15.334,49.17412109,-121.68317345,0.00000000,
2.5600,-0.2257,-0.3177,0.8233,1.2120,0.0963,-2.6833,0.7499,-1.1974,0.0767,854.3613,19.9800,16.2600,-43.6200,-99.361,20.411,15.334,49.17412109,-121.68317345,0.00000000,
2.5620,-0.2257,-0.3177,0.8233,1.2120,0.0963,-2.6833,0.5209,0.2120,0.1214,854.3613,19.9800,16.2600,-43.6200,-99.361,20.411,15.334,49.17412109,-121.68317345,0.00000000,
2.5970,-0.2257,-0.3177,0.8233,1.2395,0.2213,-0.4842,0.5209,0.2120,0.1214,854.3613,19.9800,16.2600,-43.6200,-99.361,20.411,15.334,49.17412109,-121.68317345,0.00000000,
2.6250,-0.4202,-0.4222,0.8101,1.2395,0.2213,-0.4842,0.5209,0.2120,0.1214,854.3613,19.9800,16.2600,-43.6200,156.348,24.829,27.417,49.17412109,-121.68317345,0.00000000,
2.6290,-0.4202,-0.4222,0.8101,1.2395,0.2213,-0.4842,0.5209,0.2120,0.1214,854.3613,23.9400,16.6200,-42.9600,-165.194,24.829,27.417,49.17412109,-121.68317345,0.00000000,
2.6320,-0.4202,-0.4222,0.8101,1.2395,0.2213,-0.4842,0.6381,1.3390,-0.3494,854.3613,23.9400,16.6200,-42.9600,-165.194,24.829,27.417,49.17412109,-121.68317345,0.00000000,
2.6580,-0.4202,-0.4222,0.8101,-0.0097,-0.9852,-0.3893,0.6381,1.3390,-0.3494,854.3613,23.9400,16.6200,-42.9600,-165.194,24.829,27.417,49.17412109,-121.68317345,0.00000000,
2.6850,-0.3665,-0.4540,0.8374,-0.0097,-0.9852,-0.3893,0.6381,1.3390,-0.3494,854.3613,23.9400,16.6200,-42.9600,-145.647,26.411,23.634,49.17412109,-121.68317345,0.00000000,
2.6890,-0.3665,-0.4540,0.8374,-0.0097,-0.9852,-0.3893,0.6381,1.3390,-0.3494,854.3613,27.3000,17.2800,-42.1200,-128.901,26.411,23.634,49.17412109,-121.68317345,0.00000000,
2.6930,-0.3665,-0.4540,0.8374,-0.0097,-0.9852,-0.3893,0.5475,0.7798,-0.0341,854.3613,27.3000,17.2800,-42.1200,-128.901,26.411,23.634,49.17412109,-121.68317345,0.00000000,
2.6960,-0.3665,-0.4540,0.8374,-0.0097,-0.9852,-0.3893,0.5475,0.7798,-0.0341,854.3684,27.3000,17.2800,-42.1200,-128.901,26.411,23.634,49.17412109,-121.68317345,0.00000000,
2.7000,-0.3665,-0.4540,0.8374,-0.0097,-0.9852,-0.3893,0.5475,0.7798,-0.0341,854.3684,27.3000,17.2800,-42.1200,-128.901,26.411,23.634,49.17412109,-121.68317345,0.00000000,
2.7140,-0.3665,-0.4540,0.8374,0.7579,-1.4447,-0.0534,0.5475,0.7798,-0.0341,854.3684,27.3000,17.2800,-42.1200,-128.901,26.411,23.634,49.17412109,-121.68317345,0.00000000,
2.7380,-0.4036,-0.5024,0.9527,0.7579,-1.4447,-0.0534,0.5475,0.7798,-0.0341,854.3684,27.3000,17.2800,-42.1200,-124.768,25.897,22.958,49.17412109,-121.68317345,0.00000000,
2.7400,-0.4036,-0.5024,0.9527,0.7579,-1.4447,-0.0534,0.5475,0.7798,-0.0341,854.3684,29.7600,18.0600,-41.0400,-115.061,25.897,22.958,49.17412109,-121.68317345,0.00000000,
2.7430,-0.4036,-0.5024,0.9527,0.7579,-1.4447,-0.0534,-1.1260,-0.1555,-0.2333,854.3684,29.7600,18.0600,-41.0400,-115.061,25.897,22.958,49.17412109,-121.68317345,0.00000000,
2.7770,-0.4036,-0.5024,0.9527,0.1638,-1.1542,1.2745,-1.1260,-0.1555,-0.2333,854.3684,29.7600,18.0600,-41.0400,-115.061,25.897,22.958,49.17412109,-121.68317345,0.00000000,
2.8010,-0.4358,-0.4877,0.8096,0.1638,-1.1542,1.2745,-1.1260,-0.1555,-0.2333,854.3684,29.7600,18.0600,-41.0400,-138.350,27.943,28.296,49.17412109,-121.68317345,0.00000000,
2.8090,-0.4358,-0.4877,0.8096,0.1638,-1.1542,1.2745,-1.1260,-0.1555,-0.2333,854.3684,31.5600,18.4200,-40.0200,-129.426,27.943,28.296,49.17412109,-121.68317345,0.00000000,
2.8140,-0.4358,-0.4877,0.8096,0.1638,-1.1542,1.2745,-1.2900,-0.0107,-0.3196,854.3684,31.5600,18.4200,-40.0200,-129.426,27.943,28.296,49.17412109,-121.68317345,0.00000000,
2.8360,-0.4358,-0.4877,0.8096,-0.2602,-0.3895,0.1357,-1.2900,-0.0107,-0.3196,854.3684,31.5600,18.4200,-40.0200,-129.426,27.943,28.296,49.17412109,-121.68317345,0.00000000,
2.8610,-0.2946,-0.4584,0.7944,-0.2602,-0.3895,0.1357,-1.2900,-0.0107,-0.3196,854.3684,31.5600,18.4200,-40.0200,-113.682,28.413,20.349,49.17412109,-121.68317345,0.00000000,
2.8670,-0.2946,-0.4584,0.7944,-0.2602,-0.3895,0.1357,-1.2900,-0.0107,-0.3196,854.3684,33.1800,18.4800,-39.1200,-110.910,28.413,20.349,49.17412109,-121.68317345,0.00000000,
2.8730,-0.2946,-0.4584,0.7944,-0.2602,-0.3895,0.1357,-1.0440,-0.2152,0.0181,854.3684,33.1800,18.4800,-39.1200,-110.910,28.413,20.349,49.17412109,-121.68317345,0.00000000,
2.8760,-0.2946,-0.4584,0.7944,-0.2602,-0.3895,0.1357,-1.0440,-0.2152,0.0181,854.4236,33.1800,18.4800,-39.1200,-110.910,28.413,20.349,49.17412109,-121.68317345,0.00000000,
2.8810,-0.2946,-0.4584,0.7944,-0.2602,-0.3895,0.1357,-1.0440,-0.2152,0.0181,854.4236,33.1800,18.4800,-39.1200,-110.910,28.413,20.349,49.17412109,-121.68317345,0.00000000,
2.8960,-0.2946,-0.4584,0.7944,0.9290,0.3810,0.1789,-1.0440,-0.2152,0.0181,854.4236,33.1800,18.4800,-39.1200,-110.910,28.413,20.349,49.17412109,-121.68317345,0.00000000,
2.9200,-0.3010,-0.5346,0.3092,0.9290,0.3810,0.1789,-1.0440,-0.2152,0.0181,854.4236,33.1800,18.4800,-39.1200,172.910,51.090,44.226,49.17412109,-121.68317345,0.00000000,
2.9240,-0.3010,-0.5346,0.3092,0.9290,0.3810,0.1789,-1.0440,-0.2152,0.0181,854.4236,34.4400,18.6000,-38.4000,175.766,51.090,44.226,49.17412109,-121.68317345,0.00000000,
2.9330,-0.3010,-0.5346,0.3092,0.9290,0.3810,0.1789,-0.9609,0.1598,-0.3302,854.4236,34.4400,18.6000,-38.4000,175.766,51.090,44.226,49.17412109,-121.68317345,0.00000000,
2.9560,-0.3010,-0.5346,0.3092,0.9500,0.2436,-4.1042,-0.9609,0.1598,-0.3302,854.4236,34.4400,18.6000,-38.4000,175.766,51.090,44.226,49.17412109,-121.68317345,0.00000000,
2.9820,-0.2888,-0.5732,0.6180,0.9500,0.2436,-4.1042,-0.9609,0.1598,-0.3302,854.4236,34.4400,18.6000,-38.4000,-139.530,40.039,25.044,49.17412109,-121.68317345,0.00000000,
2.9880,-0.2888,-0.5732,0.6180,0.9500,0.2436,-4.1042,-0.9609,0.1598,-0.3302,854.4236,35.2800,18.4800,-37.8000,-137.616,40.039,25.044,49.17412109,-121.68317345,0.00000000,
2.9910,-0.2888,-0.5732,0.6180,0.9500,0.2436,-4.1042,-0.4719,-0.9033,0.3366,854.4236,35.2800,18.4800,-37.8000,-137.616,40.039,25.044,49.17412109,-121.68317345,0.00000000,
3.0160,-0.2888,-0.5732,0.6180,0.7612,0.0428,-1.1013,-0.4719,-0.9033,0.3366,854.4236,35.2800,18.4800,-37.8000,-137.616,40.039,25.044,49.17412109,-121.68317345,0.00000000,
3.0420,-0.5986,-0.5688,0.7465,0.7612,0.0428,-1.1013,-0.4719,-0.9033,0.3366,854.4236,35.2800,18.4800,-37.8000,-159.650,30.729,38.721,49.17412109,-121.68317345,0.00000000,
3.0560,-0.5986,-0.5688,0.7465,0.7612,0.0428,-1.1013,-0.4719,-0.9033,0.3366,854.4236,35.8200,18.4200,-37.5000,-156.981,30.729,38.721,49.17412109,-121.68317345,0.00000000,
3.0590,-0.5986,-0.5688,0.7465,0.7612,0.0428,-1.1013,-2.2903,-2.4746,0.4581,854.4236,35.8200,18.4200,-37.5000,-156.981,30.729,38.721,49.17412109,-121.68317345,0.00000000,
3.0610,-0.5986,-0.5688,0.7465,0.7612,0.0428,-1.1013,-2.2903,-2.4746,0.4581,854.3660,35.8200,18.4200,-37.5000,-156.981,30.729,38.721,49.17412109,-121.68317345,0.00000000,
3.0630,-0.5986,-0.5688,0.7465,0.7612,0.0428,-1.1013,-2.2903,-2.4746,0.4581,854.3660,35.8200,18.4200,-37.5000,-156.981,30.729,38.721,49.17412109,-121.68317345,0.00000000,
3.0740,-0.5986,-0.5688,0.7465,-3.0920,0.9369,0.5279,-2.2903,-2.4746,0.4581,854.3660,35.8200,18.4200,-37.5000,-156.981,30.729,38.721,49.17412109,-121.68317345,0.00000000,
3.0970,-0.2619,-0.5107,0.8868,-3.0920,0.9369,0.5279,-2.2903,-2.4746,0.4581,854.3660,35.8200,18.4200,-37.5000,-104.569,28.911,16.454,49.17412109,-121.68317345,0.00000000,
3.1000,-0.2619,-0.5107,0.8868,-3.0920,0.9369,0.5279,-2.2903,-2.4746,0.4581,854.3660,35.9400,18.3600,-37.3800,-104.511,28.911,16.454,49.17412109,-121.68317345,0.00000000,
3.1050,-0.2619,-0.5107,0.8868,-3.0920,0.9369,0.5279,-0.9151,-0.6104,-0.2120,854.3660,35.9400,18.3600,-37.3800,-104.511,28.911,16.454,49.17412109,-121.68317345,0.00000000,
3.1350,-0.2619,-0.5107,0.8868,-0.1223,1.7624,2.0266,-0.9151,-0.6104,-0.2120,854.3660,35.9400,18.3600,-37.3800,-104.511,28.911,16.454,49.17412109,-121.68317345,0.00000000,
3.1610,0.1275,-0.5488,0.9376,-0.1223,1.7624,2.0266,-0.9151,-0.6104,-0.2120,854.3660,35.9400,18.3600,-37.3800,-90.380,30.112,-7.746,49.17412109,-121.68317345,0.00000000,
3.1640,0.1275,-0.5488,0.9376,-0.1223,1.7624,2.0266,-0.9151,-0.6104,-0.2120,854.3660,35.6400,18.6600,-37.3800,-90.044,30.112,-7.746,49.17412109,-121.68317345,0.00000000,
3.1670,0.1275,-0.5488,0.9376,-0.1223,1.7624,2.0266,-0.0309,0.8554,-0.4847,854.3660,35.6400,18.6600,-37.3800,-90.044,30.112,-7.746,49.17412109,-121.68317345,0.00000000,
3.1950,0.1275,-0.5488,0.9376,3.5550,1.3797,2.4660,-0.0309,0.8554,-0.4847,854.3660,35.6400,18.6600,-37.3800,-90.044,30.112,-7.746,49.17412109,-121.68317345,0.00000000,
3.2200,-0.2169,-0.5898,1.1863,3.5550,1.3797,2.4660,-0.0309,0.8554,-0.4847,854.3660,35.6400,18.6600,-37.3800,-94.458,26.062,10.364,49.17412109,-121.68317345,0.00000000,
3.2250,-0.2169,-0.5898,1.1863,3.5550,1.3797,2.4660,-0.0309,0.8554,-0.4847,854.3660,35.1000,19.1400,-37.5600,-93.736,26.062,10.364,49.17412109,-121.68317345,0.00000000,
3.2280,-0.2169,-0.5898,1.1863,3.5550,1.3797,2.4660,1.1164,0.0671,-0.9886,854.3660,35.1000,19.1400,-37.5600,-93.736,26.062,10.364,49.17412109,-121.68317345,0.00000000,
3.2310,-0.2169,-0.5898,1.1863,3.5550,1.3797,2.4660,1.1164,0.0671,-0.9886,854.3547,35.1000,19.1400,-37.5600,-93.736,26.062,10.364,49.17412109,-121.68317345,0.00000000,
3.2340,-0.2169,-0.5898,1.1863,3.5550,1.3797,2.4660,1.1164,0.0671,-0.9886,854.3547,35.1000,19.1400,-37.5600,-93.736,26.062,10.364,49.17412109,-121.68317345,0.00000000,
3.2570,-0.2169,-0.5898,1.1863,-0.2182,0.4569,4.3025,1.1164,0.0671,-0.9886,854.3547,35.1000,19.1400,-37.5600,-93.736,26.062,10.364,49.17412109,-121.68317345,0.00000000,
3.2830,-0.0826,-0.4589,0.6903,-0.2182,0.4569,4.3025,1.1164,0.0671,-0.9886,854.3547,35.1000,19.1400,-37.5600,-102.728,33.424,6.821,49.17412109,-121.68317345,0.00000000,
3.2900,-0.0826,-0.4589,0.6903,-0.2182,0.4569,4.3025,1.1164,0.0671,-0.9886,854.3547,34.3200,19.6200,-37.8600,-102.536,33.424,6.821,49.17412109,-121.68317345,0.00000000,
3.2950,-0.0826,-0.4589,0.6903,-0.2182,0.4569,4.3025,-0.6935,0.6221,0.1651,854.3547,34.3200,19.6200,-37.8600,-102.536,33.424,6.821,49.17412109,-121.68317345,0.00000000,
3.3180,-0.0826,-0.4589,0.6903,1.3498,1.9607,-0.2921,-0.6935,0.6221,0.1651,854.3547,34.3200,19.6200,-37.8600,-102.536,33.424,6.821,49.17412109,-121.68317345,0.00000000,
3.3510,-0.3225,-0.9831,0.3840,1.3498,1.9607,-0.2921,-0.6935,0.6221,0.1651,854.3547,34.3200,19.6200,-37.8600,-176.975,62.977,40.024,49.17412109,-121.68317345,0.00000000,
3.3570,-0.3225,-0.9831,0.3840,1.3498,1.9607,-0.2921,-0.6935,0.6221,0.1651,854.3547,33.5400,20.2800,-38.0400,-178.057,62.977,40.024,49.17412109,-121.68317345,0.00000000,
3.3670,-0.3225,-0.9831,0.3840,1.3498,1.9607,-0.2921,0.1726,0.2386,-0.0991,854.3547,33.5400,20.2800,-38.0400,-178.057,62.977,40.024,49.17412109,-121.68317345,0.00000000,
3.3740,-0.3225,-0.9831,0.3840,-0.8766,-3.0021,-3.0898,0.1726,0.2386,-0.0991,854.3547,33.5400,20.2800,-38.0400,-178.057,62.977,40.024,49.17412109,-121.68317345,0.00000000,
3.3960,-0.3713,-0.5888,0.5609,-0.8766,-3.0021,-3.0898,0.1726,0.2386,-0.0991,854.3547,33.5400,20.2800,-38.0400,-158.659,41.199,33.508,49.17412109,-121.68317345,0.00000000,
3.4000,-0.3713,-0.5888,0.5609,-0.8766,-3.0021,-3.0898,0.1726,0.2386,-0.0991,854.3547,32.8200,21.0000,-38.2200,-159.901,41.199,33.508,49.17412109,-121.68317345,0.00000000,
3.4060,-0.3713,-0.5888,0.5609,-0.8766,-3.0021,-3.0898,-1.2506,0.1641,0.0629,854.3547,32.8200,21.0000,-38.2200,-159.901,41.199,33.508,49.17412109,-121.68317345,0.00000000,
3.4080,-0.3713,-0.5888,0.5609,-0.8766,-3.0021,-3.0898,-1.2506,0.1641,0.0629,854.3542,32.8200,21.0000,-38.2200,-159.901,41.199,33.508,49.17412109,-121.68317345,0.00000000,
3.4090,-0.3713,-0.5888,0.5609,-0.8766,-3.0021,-3.0898,-1.2506,0.1641,0.0629,854.3542,32.8200,21.0000,-38.2200,-159.901,41.199,33.508,49.17412109,-121.68317345,0.00000000,
3.4350,-0.3713,-0.5888,0.5609,-1.1596,1.3148,-0.8137,-1.2506,0.1641,0.0629,854.3542,32.8200,21.0000,-38.2200,-159.901,41.199,33.508,49.17412109,-121.68317345,0.00000000,
3.4600,-0.4051,-0.6983,0.6801,-1.1596,1.3148,-0.8137,-1.2506,0.1641,0.0629,854.3542,32.8200,21.0000,-38.2200,-153.174,41.417,30.778,49.17412109,-121.68317345,0.00000000,
3.4650,-0.4051,-0.6983,0.6801,-1.1596,1.3148,-0.8137,-1.2506,0.1641,0.0629,854.3542,32.1000,21.9000,-38.4000,-154.016,41.417,30.778,49.17412109,-121.68317345,0.00000000,
3.4680,-0.4051,-0.6983,0.6801,-1.1596,1.3148,-0.8137,0.2557,0.5380,0.1321,854.3542,32.1000,21.9000,-38.4000,-154.016,41.417,30.778,49.17412109,-121.68317345,0.00000000,
3.4960,-0.4051,-0.6983,0.6801,-1.1583,0.0942,0.3293,0.2557,0.5380,0.1321,854.3542,32.1000,21.9000,-38.4000,-154.016,41.417,30.778,49.17412109,-121.68317345,0.00000000,
3.5190,-0.1608,-0.9719,0.6063,-1.1583,0.0942,0.3293,0.2557,0.5380,0.1321,854.3542,32.1000,21.9000,-38.4000,-141.064,57.162,14.849,49.17412109,-121.68317345,0.00000000,
3.5230,-0.1608,-0.9719,0.6063,-1.1583,0.0942,0.3293,0.2557,0.5380,0.1321,854.3542,31.3200,22.9200,-38.5200,-141.446,57.162,14.849,49.17412109,-121.68317345,0.00000000,
3.5270,-0.1608,-0.9719,0.6063,-1.1583,0.0942,0.3293,0.2099,0.5976,0.2184,854.3542,31.3200,22.9200,-38.5200,-141.446,57.162,14.849,49.17412109,-121.68317345,0.00000000,
3.5540,-0.1608,-0.9719,0.6063,1.4071,-2.5667,-0.2921,0.2099,0.5976,0.2184,854.3542,31.3200,22.9200,-38.5200,-141.446,57.162,14.849,49.17412109,-121.68317345,0.00000000,
3.5800,-0.3665,-0.6846,0.4783,1.4071,-2.5667,-0.2921,0.2099,0.5976,0.2184,854.3542,31.3200,22.9200,-38.5200,-176.289,48.648,37.459,49.17412109,-121.68317345,0.00000000,
3.5860,-0.3665,-0.6846,0.4783,1.4071,-2.5667,-0.2921,0.2099,0.5976,0.2184,854.3542,30.6600,24.1800,-38.4600,-177.412,48.648,37.459,49.17412109,-121.68317345,0.00000000,
3.5940,-0.3665,-0.6846,0.4783,1.4071,-2.5667,-0.2921,1.3806,0.5678,-0.5710,854.3542,30.6600,24.1800,-38.4600,-177.412,48.648,37.459,49.17412109,-121.68317345,0.00000000,
3.5980,-0.3665,-0.6846,0.4783,1.4071,-2.5667,-0.2921,1.3806,0.5678,-0.5710,854.4111,30.6600,24.1800,-38.4600,-177.412,48.648,37.459,49.17412109,-121.68317345,0.00000000,
3.6010,-0.3665,-0.6846,0.4783,1.4071,-2.5667,-0.2921,1.3806,0.5678,-0.5710,854.4111,30.6600,24.1800,-38.4600,-177.412,48.648,37.459,49.17412109,-121.68317345,0.00000000,
3.6140,-0.3665,-0.6846,0.4783,-0.5591,-0.1178,-1.9104,1.3806,0.5678,-0.5710,854.4111,30.6600,24.1800,-38.4600,-177.412,48.648,37.459,49.17412109,-121.68317345,0.00000000,
3.6350,-0.0850,-0.3743,0.4978,-0.5591,-0.1178,-1.9104,1.3806,0.5678,-0.5710,854.4111,30.6600,24.1800,-38.4600,-104.683,36.546,9.691,49.17412109,-121.68317345,0.00000000,
3.6390,-0.0850,-0.3743,0.4978,-0.5591,-0.1178,-1.9104,1.3806,0.5678,-0.5710,854.4111,30.0000,25.5600,-38.4000,-102.239,36.546,9.691,49.17412109,-121.68317345,0.00000000,
3.6400,-0.0850,-0.3743,0.4978,-0.5591,-0.1178,-1.9104,0.1886,7.6411,0.6242,854.4111,30.0000,25.5600,-38.4000,-102.239,36.546,9.691,49.17412109,-121.68317345,0.00000000,
3.6730,-0.0850,-0.3743,0.4978,4.9706,2.7044,0.2021,0.1886,7.6411,0.6242,854.4111,30.0000,25.5600,-38.4000,-102.239,36.546,9.691,49.17412109,-121.68317345,0.00000000,
3.6950,-0.3757,-0.4745,0.6474,4.9706,2.7044,0.2021,0.1886,7.6411,0.6242,854.4111,30.0000,25.5600,-38.4000,-122.553,32.372,30.132,49.17412109,-121.68317345,0.00000000,
3.6970,-0.3757,-0.4745,0.6474,4.9706,2.7044,0.2021,0.1886,7.6411,0.6242,854.4111,30.1200,27.1800,-37.9800,-111.330,32.372,30.132,49.17412109,-121.68317345,0.00000000,
3.7000,-0.3757,-0.4745,0.6474,4.9706,2.7044,0.2021,-0.7862,-2.6216,-0.7595,854.4111,30.1200,27.1800,-37.9800,-111.330,32.372,30.132,49.17412109,-121.68317345,0.00000000,
3.7320,-0.3757,-0.4745,0.6474,1.0326,2.1804,1.1207,-0.7862,-2.6216,-0.7595,854.4111,30.1200,27.1800,-37.9800,-111.330,32.372,30.132,49.17412109,-121.68317345,0.00000000,
3.7680,-0.4505,-0.5835,0.4602,1.0326,2.1804,1.1207,-0.7862,-2.6216,-0.7595,854.4111,30.1200,27.1800,-37.9800,157.581,42.176,44.389,49.17412109,-121.68317345,0.00000000,
3.7750,-0.4505,-0.5835,0.4602,1.0326,2.1804,1.1207,-0.7862,-2.6216,-0.7595,854.4111,30.2400,28.6800,-37.6200,156.833,42.176,44.389,49.17412109,-121.68317345,0.00000000,
3.7900,-0.4505,-0.5835,0.4602,1.0326,2.1804,1.1207,-0.1289,-0.9950,-0.5763,854.4111,30.2400,28.6800,-37.6200,156.833,42.176,44.389,49.17412109,-121.68317345,0.00000000,
3.7910,-0.4505,-0.5835,0.4602,1.0326,2.1804,1.1207,-0.1289,-0.9950,-0.5763,854.4014,30.2400,28.6800,-37.6200,156.833,42.176,44.389,49.17412109,-121.68317345,0.00000000,
3.7950,-0.4505,-0.5835,0.4602,1.0326,2.1804,1.1207,-0.1289,-0.9950,-0.5763,854.4014,30.2400,28.6800,-37.6200,156.833,42.176,44.389,49.17412109,-121.68317345,0.00000000,
3.7970,-0.4505,-0.5835,0.4602,-0.2060,1.2873,-0.9104,-0.1289,-0.9950,-0.5763,854.4014,30.2400,28.6800,-37.6200,156.833,42.176,44.389,49.17412109,-121.68317345,0.00000000,
3.8140,-0.7202,-0.7027,-0.2522,-0.2060,1.2873,-0.9104,-0.1289,-0.9950,-0.5763,854.4014,30.2400,28.6800,-37.6200,77.381,42.640,109.298,49.17412109,-121.68317345,0.00000000,
3.8160,-0.7202,-0.7027,-0.2522,-0.2060,1.2873,-0.9104,-0.1289,-0.9950,-0.5763,854.4014,29.9400,30.1800,-37.2000,75.801,42.640,109.298,49.17412109,-121.68317345,0.00000000,
3.8180,-0.7202,-0.7027,-0.2522,-0.2060,1.2873,-0.9104,0.5273,-0.3760,-0.9129,854.4014,29.9400,30.1800,-37.2000,75.801,42.640,109.298,49.17412109,-121.68317345,0.00000000,
3.8540,-0.7202,-0.7027,-0.2522,-3.0336,0.3282,-7.7558,0.5273,-0.3760,-0.9129,854.4014,29.9400,30.1800,-37.2000,75.801,42.640,109.298,49.17412109,-121.68317345,0.00000000,
3.8860,-0.2560,-0.5649,0.5164,-3.0336,0.3282,-7.7558,0.5273,-0.3760,-0.9129,854.4014,29.9400,30.1800,-37.2000,-137.098,44.423,26.372,49.17412109,-121.68317345,0.00000000,
3.8910,-0.2560,-0.5649,0.5164,-3.0336,0.3282,-7.7558,0.5273,-0.3760,-0.9129,854.4014,29.1600,31.4400,-36.7800,-134.675,44.423,26.372,49.17412109,-121.68317345,0.00000000,
3.8960,-0.2560,-0.5649,0.5164,-3.0336,0.3282,-7.7558,-0.3505,-0.0213,0.1939,854.4014,29.1600,31.4400,-36.7800,-134.675,44.423,26.372,49.17412109,-121.68317345,0.00000000,
3.9150,-0.2560,-0.5649,0.5164,1.5303,1.7268,-0.1455,-0.3505,-0.0213,0.1939,854.4014,29.1600,31.4400,-36.7800,-134.675,44.423,26.372,49.17412109,-121.68317345,0.00000000,
3.9430,-0.3787,-0.7007,0.5491,1.5303,1.7268,-0.1455,-0.3505,-0.0213,0.1939,854.4014,29.1600,31.4400,-36.7800,-165.677,46.411,34.589,49.17412109,-121.68317345,0.00000000,
3.9480,-0.3787,-0.7007,0.5491,1.5303,1.7268,-0.1455,-0.3505,-0.0213,0.1939,854.4014,28.2600,32.7000,-36.4200,-166.505,46.411,34.589,49.17412109,-121.68317345,0.00000000,
3.9510,-0.3787,-0.7007,0.5491,1.5303,1.7268,-0.1455,-0.2535,-0.0554,0.0820,854.4014,28.2600,32.7000,-36.4200,-166.505,46.411,34.589,49.17412109,-121.68317345,0.00000000,
3.9550,-0.3787,-0.7007,0.5491,1.5303,1.7268,-0.1455,-0.2535,-0.0554,0.0820,854.3357,28.2600,32.7000,-36.4200,-166.505,46.411,34.589,49.17412109,-121.68317345,0.00000000,
3.9580,-0.3787,-0.7007,0.5491,1.5303,1.7268,-0.1455,-0.2535,-0.0554,0.0820,854.3357,28.2600,32.7000,-36.4200,-166.505,46.411,34.589,49.17412109,-121.68317345,0.00000000,
3.9730,-0.3787,-0.7007,0.5491,0.3242,0.4445,0.2408,-0.2535,-0.0554,0.0820,854.3357,28.2600,32.7000,-36.4200,-166.505,46.411,34.589,49.17412109,-121.68317345,0.00000000,
4.0000,-0.3381,-0.7144,0.5623,0.3242,0.4445,0.2408,-0.2535,-0.0554,0.0820,854.3357,28.2600,32.7000,-36.4200,-154.815,47.434,31.018,49.17412109,-121.68317345,0.00000000,
4.0050,-0.3381,-0.7144,0.5623,0.3242,0.4445,0.2408,-0.2535,-0.0554,0.0820,854.3357,27.4200,33.9000,-36.0600,-154.340,47.434,31.018,49.17412109,-121.68317345,0.00000000,
4.0090,-0.3381,-0.7144,0.5623,0.3242,0.4445,0.2408,-0.1182,0.0511,-0.0373,854.3357,27.4200,33.9000,-36.0600,-154.340,47.434,31.018,49.17412109,-121.68317345,0.00000000,
4.0320,-0.3381,-0.7144,0.5623,0.6707,0.3530,0.3912,-0.1182,0.0511,-0.0373,854.3357,27.4200,33.9000,-36.0600,-154.340,47.434,31.018,49.17412109,-121.68317345,0.00000000,
4.0590,-0.3249,-0.6621,0.5320,0.6707,0.3530,0.3912,-0.1182,0.0511,-0.0373,854.3357,27.4200,33.9000,-36.0600,-154.305,46.725,31.413,49.17412109,-121.68317345,0.00000000,
4.0630,-0.3249,-0.6621,0.5320,0.6707,0.3530,0.3912,-0.1182,0.0511,-0.0373,854.3357,26.7000,34.9800,-35.6400,-153.097,46.725,31.413,49.17412109,-121.68317345,0.00000000,
4.0670,-0.3249,-0.6621,0.5320,0.6707,0.3530,0.3912,-0.1449,0.2162,-0.0692,854.3357,26.7000,34.9800,-35.6400,-153.097,46.725,31.413,49.17412109,-121.68317345,0.00000000,
4.0940,-0.3249,-0.6621,0.5320,0.7941,0.9148,0.1614,-0.1449,0.2162,-0.0692,854.3357,26.7000,34.9800,-35.6400,-153.097,46.725,31.413,49.17412109,-121.68317345,0.00000000,
4.1210,-0.3196,-0.4535,0.6249,0.7941,0.9148,0.1614,-0.1449,0.2162,-0.0692,854.3357,26.7000,34.9800,-35.6400,-53.604,32.868,27.085,49.17412109,-121.68317345,0.00000000,
4.1270,-0.3196,-0.4535,0.6249,0.7941,0.9148,0.1614,-0.1449,0.2162,-0.0692,854.3357,26.1600,35.6400,-35.2800,-48.373,32.868,27.085,49.17412109,-121.68317345,0.00000000,
4.1300,-0.3196,-0.4535,0.6249,0.7941,0.9148,0.1614,-0.3750,0.3356,-0.1161,854.3357,26.1600,35.6400,-35.2800,-48.373,32.868,27.085,49.17412109,-121.68317345,0.00000000,
4.1330,-0.3196,-0.4535,0.6249,0.7941,0.9148,0.1614,-0.3750,0.3356,-0.1161,854.4202,26.1600,35.6400,-35.2800,-48.373,32.868,27.085,49.17412109,-121.68317345,0.00000000,
4.1370,-0.3196,-0.4535,0.6249,0.7941,0.9148,0.1614,-0.3750,0.3356,-0.1161,854.4202,26.1600,35.6400,-35.2800,-48.373,32.868,27.085,49.17412109,-121.68317345,0.00000000,
4.1510,-0.3196,-0.4535,0.6249,0.9000,3.0390,1.2332,-0.3750,0.3356,-0.1161,854.4202,26.1600,35.6400,-35.2800,-48.373,32.868,27.085,49.17412109,-121.68317345,0.00000000,
4.1730,-0.4490,-0.7071,0.2995,0.9000,3.0390,1.2332,-0.3750,0.3356,-0.1161,854.4202,26.1600,35.6400,-35.2800,127.133,52.645,56.301,49.17412109,-121.68317345,0.00000000,
4.1740,-0.4490,-0.7071,0.2995,0.9000,3.0390,1.2332,-0.3750,0.3356,-0.1161,854.4202,25.7400,36.1800,-34.8000,125.378,52.645,56.301,49.17412109,-121.68317345,0.00000000,
4.1760,-0.4490,-0.7071,0.2995,0.9000,3.0390,1.2332,-0.7361,0.7542,0.7574,854.4202,25.7400,36.1800,-34.8000,125.378,52.645,56.301,49.17412109,-121.68317345,0.00000000,
4.2120,-0.4490,-0.7071,0.2995,0.1977,0.5905,-1.3637,-0.7361,0.7542,0.7574,854.4202,25.7400,36.1800,-34.8000,125.378,52.645,56.301,49.17412109,-121.68317345,0.00000000,
4.2380,-0.5189,-0.6602,0.2653,0.1977,0.5905,-1.3637,-0.7361,0.7542,0.7574,854.4202,25.7400,36.1800,-34.8000,104.861,48.563,62.925,49.17412109,-121.68317345,0.00000000,
4.2410,-0.5189,-0.6602,0.2653,0.1977,0.5905,-1.3637,-0.7361,0.7542,0.7574,854.4202,25.3800,36.6600,-34.3800,103.033,48.563,62.925,49.17412109,-121.68317345,0.00000000,
4.2460,-0.5189,-0.6602,0.2653,0.1977,0.5905,-1.3637,-1.1835,1.0333,0.5518,854.4202,25.3800,36.6600,-34.3800,103.033,48.563,62.925,49.17412109,-121.68317345,0.00000000,
4.2720,-0.5189,-0.6602,0.2653,0.0351,1.1524,-0.8437,-1.1835,1.0333,0.5518,854.4202,25.3800,36.6600,-34.3800,103.033,48.563,62.925,49.17412109,-121.68317345,0.00000000,
4.3080,-0.4705,-1.2255,0.3669,0.0351,1.1524,-0.8437,-1.1835,1.0333,0.5518,854.4202,25.3800,36.6600,-34.3800,151.229,64.040,52.056,49.17412109,-121.68317345,0.00000000,
4.3130,-0.4705,-1.2255,0.3669,0.0351,1.1524,-0.8437,-1.1835,1.0333,0.5518,854.4202,25.0200,37.0200,-33.8400,150.825,64.040,52.056,49.17412109,-121.68317345,0.00000000,
4.3200,-0.4705,-1.2255,0.3669,0.0351,1.1524,-0.8437,-0.3292,0.7776,0.0032,854.4202,25.0200,37.0200,-33.8400,150.825,64.040,52.056,49.17412109,-121.68317345,0.00000000,
4.3370,-0.4705,-1.2255,0.3669,0.0351,1.1524,-0.8437,-0.3292,0.7776,0.0032,854.4009,25.0200,37.0200,-33.8400,150.825,64.040,52.056,49.17412109,-121.68317345,0.00000000,
4.3680,-0.4705,-1.2255,0.3669,0.0351,1.1524,-0.8437,-0.3292,0.7776,0.0032,854.4009,25.0200,37.0200,-33.8400,150.825,64.040,52.056,49.17412109,-121.68317345,0.00000000,
4.3700,-0.4705,-1.2255,0.3669,0.5574,-4.2260,0.6179,-0.3292,0.7776,0.0032,854.4009,25.0200,37.0200,-33.8400,150.825,64.040,52.056,49.17412109,-121.68317345,0.00000000,
4.3710,-0.5653,-0.6778,0.4138,0.5574,-4.2260,0.6179,-0.3292,0.7776,0.0032,854.4009,25.0200,37.0200,-33.8400,96.052,44.052,53.797,49.17412109,-121.68317345,0.00000000,
4.3760,-0.5653,-0.6778,0.4138,0.5574,-4.2260,0.6179,-0.3292,0.7776,0.0032,854.4009,24.6000,37.3800,-33.2400,92.737,44.052,53.797,49.17412109,-121.68317345,0.00000000,
4.3780,-0.5653,-0.6778,0.4138,0.5574,-4.2260,0.6179,-0.0362,0.3515,-0.2418,854.4009,24.6000,37.3800,-33.2400,92.737,44.052,53.797,49.17412109,-121.68317345,0.00000000,
4.3890,-0.5653,-0.6778,0.4138,-0.3971,1.1862,1.1506,-0.0362,0.3515,-0.2418,854.4009,24.6000,37.3800,-33.2400,92.737,44.052,53.797,49.17412109,-121.68317345,0.00000000,
4.4140,-0.6191,-0.6318,0.5706,-0.3971,1.1862,1.1506,-0.0362,0.3515,-0.2418,854.4009,24.6000,37.3800,-33.2400,54.610,36.886,47.331,49.17412109,-121.68317345,0.00000000,
4.4160,-0.6191,-0.6318,0.5706,-0.3971,1.1862,1.1506,-0.0362,0.3515,-0.2418,854.4009,24.1200,37.6200,-32.4600,50.316,36.886,47.331,49.17412109,-121.68317345,0.00000000,
4.4210,-0.6191,-0.6318,0.5706,-0.3971,1.1862,1.1506,-0.9268,1.1505,-1.9143,854.4009,24.1200,37.6200,-32.4600,50.316,36.886,47.331,49.17412109,-121.68317345,0.00000000,
4.4540,-0.6191,-0.6318,0.5706,-1.2545,2.0442,3.3172,-0.9268,1.1505,-1.9143,854.4009,24.1200,37.6200,-32.4600,50.316,36.886,47.331,49.17412109,-121.68317345,0.00000000,
4.4830,-0.0547,-0.6656,0.2848,-1.2545,2.0442,3.3172,-0.9268,1.1505,-1.9143,854.4009,24.1200,37.6200,-32.4600,-136.285,66.455,10.877,49.17412109,-121.68317345,0.00000000,
4.4880,-0.0547,-0.6656,0.2848,-1.2545,2.0442,3.3172,-0.9268,1.1505,-1.9143,854.4009,23.5800,37.8000,-31.5600,-135.316,66.455,10.877,49.17412109,-121.68317345,0.00000000,
4.4900,-0.0547,-0.6656,0.2848,-1.2545,2.0442,3.3172,0.4346,-0.5614,-3.0040,854.4009,23.5800,37.8000,-31.5600,-135.316,66.455,10.877,49.17412109,-121.68317345,0.00000000,
4.4910,-0.0547,-0.6656,0.2848,-1.2545,2.0442,3.3172,0.4346,-0.5614,-3.0040,854.4480,23.5800,37.8000,-31.5600,-135.316,66.455,10.877,49.17412109,-121.68317345,0.00000000,
4.4930,-0.0547,-0.6656,0.2848,-1.2545,2.0442,3.3172,0.4346,-0.5614,-3.0040,854.4480,23.5800,37.8000,-31.5600,-135.316,66.455,10.877,49.17412109,-121.68317345,0.00000000,
4.5100,-0.0547,-0.6656,0.2848,2.5306,2.4278,0.2106,0.4346,-0.5614,-3.0040,854.4480,23.5800,37.8000,-31.5600,-135.316,66.455,10.877,49.17412109,-121.68317345,0.00000000,
4.5410,-0.4564,-0.5185,0.3234,2.5306,2.4278,0.2106,0.4346,-0.5614,-3.0040,854.4480,23.5800,37.8000,-31.5600,79.535,42.829,54.677,49.17412109,-121.68317345,0.00000000,
4.5460,-0.4564,-0.5185,0.3234,2.5306,2.4278,0.2106,0.4346,-0.5614,-3.0040,854.4480,22.5600,38.1000,-30.5400,73.911,42.829,54.677,49.17412109,-121.68317345,0.00000000,
4.5490,-0.4564,-0.5185,0.3234,2.5306,2.4278,0.2106,2.1955,0.4836,-3.0680,854.4480,22.5600,38.1000,-30.5400,73.911,42.829,54.677,49.17412109,-121.68317345,0.00000000,
4.5700,-0.4564,-0.5185,0.3234,-3.2547,3.9265,-0.5118,2.1955,0.4836,-3.0680,854.4480,22.5600,38.1000,-30.5400,73.911,42.829,54.677,49.17412109,-121.68317345,0.00000000,
4.5950,-0.2169,-0.8600,0.3972,-3.2547,3.9265,-0.5118,2.1955,0.4836,-3.0680,854.4480,22.5600,38.1000,-30.5400,-161.641,62.245,28.644,49.17412109,-121.68317345,0.00000000,
4.6000,-0.2169,-0.8600,0.3972,-3.2547,3.9265,-0.5118,2.1955,0.4836,-3.0680,854.4480,21.0000,38.6400,-29.5200,-162.820,62.245,28.644,49.17412109,-121.68317345,0.00000000,
4.6030,-0.2169,-0.8600,0.3972,-3.2547,3.9265,-0.5118,0.4613,-0.1587,-0.9502,854.4480,21.0000,38.6400,-29.5200,-162.820,62.245,28.644,49.17412109,-121.68317345,0.00000000,
4.6360,-0.2169,-0.8600,0.3972,-1.4078,0.5092,-0.0798,0.4613,-0.1587,-0.9502,854.4480,21.0000,38.6400,-29.5200,-162.820,62.245,28.644,49.17412109,-121.68317345,0.00000000,
4.6550,-0.0391,-0.9402,0.4294,-1.4078,0.5092,-0.0798,0.4613,-0.1587,-0.9502,854.4480,21.0000,38.6400,-29.5200,-124.091,65.361,5.201,49.17412109,-121.68317345,0.00000000,
4.6590,-0.0391,-0.9402,0.4294,-1.4078,0.5092,-0.0798,0.4613,-0.1587,-0.9502,854.4480,18.3000,39.0000,-28.9800,-126.358,65.361,5.201,49.17412109,-121.68317345,0.00000000,
4.6600,-0.0391,-0.9402,0.4294,-1.4078,0.5092,-0.0798,-0.0447,-0.1257,0.6754,854.4480,18.3000,39.0000,-28.9800,-126.358,65.361,5.201,49.17412109,-121.68317345,0.00000000,
4.6620,-0.0391,-0.9402,0.4294,-1.4078,0.5092,-0.0798,-0.0447,-0.1257,0.6754,854.4458,18.3000,39.0000,-28.9800,-126.358,65.361,5.201,49.17412109,-121.68317345,0.00000000,
4.6640,-0.0391,-0.9402,0.4294,-1.4078,0.5092,-0.0798,-0.0447,-0.1257,0.6754,854.4458,18.3000,39.0000,-28.9800,-126.358,65.361,5.201,49.17412109,-121.68317345,0.00000000,
4.6920,-0.0391,-0.9402,0.4294,0.6090,-0.3109,0.2172,-0.0447,-0.1257,0.6754,854.4458,18.3000,39.0000,-28.9800,-126.358,65.361,5.201,49.17412109,-121.68317345,0.00000000,
4.7110,0.0093,-1.1766,0.4128,0.6090,-0.3109,0.2172,-0.0447,-0.1257,0.6754,854.4458,18.3000,39.0000,-28.9800,-126.531,70.662,-1.288,49.17412109,-121.68317345,0.00000000,
4.7130,0.0093,-1.1766,0.4128,0.6090,-0.3109,0.2172,-0.0447,-0.1257,0.6754,854.4458,15.6000,39.3600,-28.3800,-129.553,70.662,-1.288,49.17412109,-121.68317345,0.00000000,
4.7150,0.0093,-1.1766,0.4128,0.6090,-0.3109,0.2172,0.0852,-0.3206,0.4645,854.4458,15.6000,39.3600,-28.3800,-129.553,70.662,-1.288,49.17412109,-121.68317345,0.00000000,
4.7510,0.0093,-1.1766,0.4128,1.1914,-2.6246,0.0915,0.0852,-0.3206,0.4645,854.4458,15.6000,39.3600,-28.3800,-129.553,70.662,-1.288,49.17412109,-121.68317345,0.00000000,
4.7800,-0.0738,-1.0843,0.4729,1.1914,-2.6246,0.0915,0.0852,-0.3206,0.4645,854.4458,15.6000,39.3600,-28.3800,-137.288,66.182,8.867,49.17412109,-121.68317345,0.00000000,
4.7890,-0.0738,-1.0843,0.4729,1.1914,-2.6246,0.0915,0.0852,-0.3206,0.4645,854.4458,13.2600,39.7200,-27.7800,-141.126,66.182,8.867,49.17412109,-121.68317345,0.00000000,
4.7910,-0.0738,-1.0843,0.4729,1.1914,-2.6246,0.0915,0.2120,-0.1896,0.0724,854.4458,13.2600,39.7200,-27.7800,-141.126,66.182,8.867,49.17412109,-121.68317345,0.00000000,
4.8120,-0.0738,-1.0843,0.4729,0.3327,-1.7650,0.5679,0.2120,-0.1896,0.0724,854.4458,13.2600,39.7200,-27.7800,-141.126,66.182,8.867,49.17412109,-121.68317345,0.00000000,
4.8440,-0.1476,-0.7481,0.5403,0.3327,-1.7650,0.5679,0.2120,-0.1896,0.0724,854.4458,13.2600,39.7200,-27.7800,-94.625,53.177,15.274,49.17412109,-121.68317345,0.00000000,
4.8470,-0.1476,-0.7481,0.5403,0.3327,-1.7650,0.5679,0.2120,-0.1896,0.0724,854.4458,11.4600,40.2000,-27.3000,-81.242,53.177,15.274,49.17412109,-121.68317345,0.00000000,
4.8530,-0.1476,-0.7481,0.5403,0.3327,-1.7650,0.5679,0.1246,-0.2535,0.2429,854.4458,11.4600,40.2000,-27.3000,-81.242,53.177,15.274,49.17412109,-121.68317345,0.00000000,
4.8560,-0.1476,-0.7481,0.5403,0.3327,-1.7650,0.5679,0.1246,-0.2535,0.2429,854.4011,11.4600,40.2000,-27.3000,-81.242,53.177,15.274,49.17412109,-121.68317345,0.00000000,
4.8600,-0.1476,-0.7481,0.5403,0.3327,-1.7650,0.5679,0.1246,-0.2535,0.2429,854.4011,11.4600,40.2000,-27.3000,-81.242,53.177,15.274,49.17412109,-121.68317345,0.00000000,
4.8700,-0.1476,-0.7481,0.5403,-0.2857,1.4054,0.9956,0.1246,-0.2535,0.2429,854.4011,11.4600,40.2000,-27.3000,-81.242,53.177,15.274,49.17412109,-121.68317345,0.00000000,
4.8940,-0.1358,-0.8644,0.3942,-0.2857,1.4054,0.9956,0.1246,-0.2535,0.2429,854.4011,11.4600,40.2000,-27.3000,-168.009,64.247,19.011,49.17412109,-121.68317345,0.00000000,
4.8960,-0.1358,-0.8644,0.3942,-0.2857,1.4054,0.9956,0.1246,-0.2535,0.2429,854.4011,9.7200,40.6200,-26.8800,-176.932,64.247,19.011,49.17412109,-121.68317345,0.00000000,
4.8990,-0.1358,-0.8644,0.3942,-0.2857,1.4054,0.9956,-0.0916,-0.3089,0.4346,854.4011,9.7200,40.6200,-26.8800,-176.932,64.247,19.011,49.17412109,-121.68317345,0.00000000,
4.9310,-0.1358,-0.8644,0.3942,-0.0305,0.2545,-0.4187,-0.0916,-0.3089,0.4346,854.4011,9.7200,40.6200,-26.8800,-176.932,64.247,19.011,49.17412109,-121.68317345,0.00000000,
4.9570,-0.0655,-1.0164,0.3229,-0.0305,0.2545,-0.4187,-0.0916,-0.3089,0.4346,854.4011,9.7200,40.6200,-26.8800,-163.765,72.039,11.462,49.17412109,-121.68317345,0.00000000,
4.9650,-0.0655,-1.0164,0.3229,-0.0305,0.2545,-0.4187,-0.0916,-0.3089,0.4346,854.4011,7.9800,41.0400,-26.4600,-169.268,72.039,11.462,49.17412109,-121.68317345,0.00000000,
4.9690,-0.0655,-1.0164,0.3229,-0.0305,0.2545,-0.4187,-0.1992,-0.2162,0.5252,854.4011,7.9800,41.0400,-26.4600,-169.268,72.039,11.462,49.17412109,-121.68317345,0.00000000,
4.9900,-0.0655,-1.0164,0.3229,0.7982,-1.1762,-0.9505,-0.1992,-0.2162,0.5252,854.4011,7.9800,41.0400,-26.4600,-169.268,72.039,11.462,49.17412109,-121.68317345,0.00000000,
5.0150,-0.0205,-1.0218,0.3586,0.7982,-1.1762,-0.9505,-0.1992,-0.2162,0.5252,854.4011,7.9800,41.0400,-26.4600,-151.200,70.632,3.275,49.17412109,-121.68317345,0.00000000,
5.0180,-0.0205,-1.0218,0.3586,0.7982,-1.1762,-0.9505,-0.1992,-0.2162,0.5252,854.4011,6.3000,41.4000,-26.1000,-156.795,70.632,3.275,49.17412109,-121.68317345,0.00000000,
5.0200,-0.0205,-1.0218,0.3586,0.7982,-1.1762,-0.9505,-0.0756,-0.0479,0.4005,854.4011,6.3000,41.4000,-26.1000,-156.795,70.632,3.275,49.17412109,-121.68317345,0.00000000,
5.0250,-0.0205,-1.0218,0.3586,0.7982,-1.1762,-0.9505,-0.0756,-0.0479,0.4005,854.3701,6.3000,41.4000,-26.1000,-156.795,70.632,3.275,49.17412109,-121.68317345,0.00000000,
5.0270,-0.0205,-1.0218,0.3586,0.7982,-1.1762,-0.9505,-0.0756,-0.0479,0.4005,854.3701,6.3000,41.4000,-26.1000,-156.795,70.632,3.275,49.17412109,-121.68317345,0.00000000,
5.0490,-0.0205,-1.0218,0.3586,1.3128,-1.1921,-0.4944,-0.0756,-0.0479,0.4005,854.3701,6.3000,41.4000,-26.1000,-156.795,70.632,3.275,49.17412109,-121.68317345,0.00000000,
5.0710,0.0396,-0.8805,0.4260,1.3128,-1.1921,-0.4944,-0.0756,-0.0479,0.4005,854.3701,6.3000,41.4000,-26.1000,-118.708,64.085,-5.308,49.17412109,-121.68317345,0.00000000,
5.0740,0.0396,-0.8805,0.4260,1.3128,-1.1921,-0.4944,-0.0756,-0.0479,0.4005,854.3701,4.6200,41.7000,-25.8000,-122.771,64.085,-5.308,49.17412109,-121.68317345,0.00000000,
5.0760,0.0396,-0.8805,0.4260,1.3128,-1.1921,-0.4944,0.1225,0.0916,0.1129,854.3701,4.6200,41.7000,-25.8000,-122.771,64.085,-5.308,49.17412109,-121.68317345,0.00000000,
5.1110,0.0396,-0.8805,0.4260,1.8431,0.1719,0.1017,0.1225,0.0916,0.1129,854.3701,4.6200,41.7000,-25.8000,-122.771,64.085,-5.308,49.17412109,-121.68317345,0.00000000,
5.1340,-0.0557,-0.7965,0.3762,1.8431,0.1719,0.1017,0.1225,0.0916,0.1129,854.3701,4.6200,41.7000,-25.8000,-172.066,64.479,8.423,49.17412109,-121.68317345,0.00000000,
5.1370,-0.0557,-0.7965,0.3762,1.8431,0.1719,0.1017,0.1225,0.0916,0.1129,854.3701,3.0000,42.0000,-25.5000,171.382,64.479,8.423,49.17412109,-121.68317345,0.00000000,
5.1400,-0.0557,-0.7965,0.3762,1.8431,0.1719,0.1017,0.2940,0.1726,-0.0969,854.3701,3.0000,42.0000,-25.5000,171.382,64.479,8.423,49.17412109,-121.68317345,0.00000000,
5.1710,-0.0557,-0.7965,0.3762,0.8167,0.9418,-0.5320,0.2940,0.1726,-0.0969,854.3701,3.0000,42.0000,-25.5000,171.382,64.479,8.423,49.17412109,-121.68317345,0.00000000,
5.1960,-0.2287,-0.7892,0.2643,0.8167,0.9418,-0.5320,0.2940,0.1726,-0.0969,854.3701,3.0000,42.0000,-25.5000,99.531,66.114,40.868,49.17412109,-121.68317345,0.00000000,
5.1990,-0.2287,-0.7892,0.2643,0.8167,0.9418,-0.5320,0.2940,0.1726,-0.0969,854.3701,1.4400,42.1800,-25.2600,94.622,66.114,40.868,49.17412109,-121.68317345,0.00000000,
5.2020,-0.2287,-0.7892,0.2643,0.8167,0.9418,-0.5320,0.1651,0.1854,-0.2024,854.3701,1.4400,42.1800,-25.2600,94.622,66.114,40.868,49.17412109,-121.68317345,0.00000000,
5.2050,-0.2287,-0.7892,0.2643,0.8167,0.9418,-0.5320,0.1651,0.1854,-0.2024,854.3455,1.4400,42.1800,-25.2600,94.622,66.114,40.868,49.17412109,-121.68317345,0.00000000,
5.2090,-0.2287,-0.7892,0.2643,0.8167,0.9418,-0.5320,0.1651,0.1854,-0.2024,854.3455,1.4400,42.1800,-25.2600,94.622,66.114,40.868,49.17412109,-121.68317345,0.00000000,
5.2300,-0.2287,-0.7892,0.2643,-0.8427,1.0025,-1.6399,0.1651,0.1854,-0.2024,854.3455,1.4400,42.1800,-25.2600,94.622,66.114,40.868,49.17412109,-121.68317345,0.00000000,
5.2570,-0.3899,-0.9836,0.2843,-0.8427,1.0025,-1.6399,0.1651,0.1854,-0.2024,854.3455,1.4400,42.1800,-25.2600,77.961,63.868,53.902,49.17412109,-121.68317345,0.00000000,
5.2660,-0.3899,-0.9836,0.2843,-0.8427,1.0025,-1.6399,0.1651,0.1854,-0.2024,854.3455,-0.0600,42.3600,-25.1400,75.130,63.868,53.902,49.17412109,-121.68317345,0.00000000,
5.2690,-0.3899,-0.9836,0.2843,-0.8427,1.0025,-1.6399,-0.1555,-0.0181,-0.1001,854.3455,-0.0600,42.3600,-25.1400,75.130,63.868,53.902,49.17412109,-121.68317345,0.00000000,
5.2890,-0.3899,-0.9836,0.2843,-2.3470,-0.8414,-1.2865,-0.1555,-0.0181,-0.1001,854.3455,-0.0600,42.3600,-25.1400,75.130,63.868,53.902,49.17412109,-121.68317345,0.00000000,
5.3140,-0.1818,-0.9910,0.5736,-2.3470,-0.8414,-1.2865,-0.1555,-0.0181,-0.1001,854.3455,-0.0600,42.3600,-25.1400,78.802,58.735,17.583,49.17412109,-121.68317345,0.00000000,
5.3160,-0.1818,-0.9910,0.5736,-2.3470,-0.8414,-1.2865,-0.1555,-0.0181,-0.1001,854.3455,-1.5000,42.5400,-25.1400,77.624,58.735,17.583,49.17412109,-121.68317345,0.00000000,
5.3190,-0.1818,-0.9910,0.5736,-2.3470,-0.8414,-1.2865,-0.1981,-0.2461,0.2557,854.3455,-1.5000,42.5400,-25.1400,77.624,58.735,17.583,49.17412109,-121.68317345,0.00000000,
5.3510,-0.1818,-0.9910,0.5736,-0.3087,-0.9531,1.4625,-0.1981,-0.2461,0.2557,854.3455,-1.5000,42.5400,-25.1400,77.624,58.735,17.583,49.17412109,-121.68317345,0.00000000,
5.3760,-0.0533,-0.9587,0.5521,-0.3087,-0.9531,1.4625,-0.1981,-0.2461,0.2557,854.3455,-1.5000,42.5400,-25.1400,93.420,59.950,5.510,49.17412109,-121.68317345,0.00000000,
5.3790,-0.0533,-0.9587,0.5521,-0.3087,-0.9531,1.4625,-0.1981,-0.2461,0.2557,854.3455,-2.8200,42.7200,-25.2600,91.500,59.950,5.510,49.17412109,-121.68317345,0.00000000,
5.3860,-0.0533,-0.9587,0.5521,-0.3087,-0.9531,1.4625,-0.1182,-0.2514,0.2663,854.3455,-2.8200,42.7200,-25.2600,91.500,59.950,5.510,49.17412109,-121.68317345,0.00000000,
5.3890,-0.0533,-0.9587,0.5521,-0.3087,-0.9531,1.4625,-0.1182,-0.2514,0.2663,854.3982,-2.8200,42.7200,-25.2600,91.500,59.950,5.510,49.17412109,-121.68317345,0.00000000,
5.3910,-0.0533,-0.9587,0.5521,-0.3087,-0.9531,1.4625,-0.1182,-0.2514,0.2663,854.3982,-2.8200,42.7200,-25.2600,91.500,59.950,5.510,49.17412109,-121.68317345,0.00000000,
5.4100,-0.0533,-0.9587,0.5521,0.9426,-0.6065,1.3140,-0.1182,-0.2514,0.2663,854.3982,-2.8200,42.7200,-25.2600,91.500,59.950,5.510,49.17412109,-121.68317345,0.00000000,
5.4330,-0.0279,-0.9221,0.2975,0.9426,-0.6065,1.3140,-0.1182,-0.2514,0.2663,854.3982,-2.8200,42.7200,-25.2600,153.832,72.045,5.348,49.17412109,-121.68317345,0.00000000,
5.4360,-0.0279,-0.9221,0.2975,0.9426,-0.6065,1.3140,-0.1182,-0.2514,0.2663,854.3982,-3.9600,42.7800,-25.5600,149.341,72.045,5.348,49.17412109,-121.68317345,0.00000000,
5.4380,-0.0279,-0.9221,0.2975,0.9426,-0.6065,1.3140,-0.0224,-0.1129,0.0703,854.3982,-3.9600,42.7800,-25.5600,149.341,72.045,5.348,49.17412109,-121.68317345,0.00000000,
5.4690,-0.0279,-0.9221,0.2975,1.1263,-0.1873,-1.0729,-0.0224,-0.1129,0.0703,854.3982,-3.9600,42.7800,-25.5600,149.341,72.045,5.348,49.17412109,-121.68317345,0.00000000,
5.4940,-0.1070,-0.7970,0.3043,1.1263,-0.1873,-1.0729,-0.0224,-0.1129,0.0703,854.3982,-3.9600,42.7800,-25.5600,112.593,67.963,19.371,49.17412109,-121.68317345,0.00000000,
5.4970,-0.1070,-0.7970,0.3043,1.1263,-0.1873,-1.0729,-0.0224,-0.1129,0.0703,854.3982,-4.6200,42.6000,-25.9800,112.271,67.963,19.371,49.17412109,-121.68317345,0.00000000,
5.5000,-0.1070,-0.7970,0.3043,1.1263,-0.1873,-1.0729,-0.0533,-0.1587,-0.0629,854.3982,-4.6200,42.6000,-25.9800,112.271,67.963,19.371,49.17412109,-121.68317345,0.00000000,
5.5300,-0.1070,-0.7970,0.3043,0.2491,1.0762,-0.9560,-0.0533,-0.1587,-0.0629,854.3982,-4.6200,42.6000,-25.9800,112.271,67.963,19.371,49.17412109,-121.68317345,0.00000000,
5.5530,-0.1104,-0.8825,0.4348,0.2491,1.0762,-0.9560,-0.0533,-0.1587,-0.0629,854.3982,-4.6200,42.6000,-25.9800,101.078,63.054,14.250,49.17412109,-121.68317345,0.00000000,
5.5560,-0.1104,-0.8825,0.4348,0.2491,1.0762,-0.9560,-0.0533,-0.1587,-0.0629,854.3982,-4.8000,42.2400,-26.3400,102.964,63.054,14.250,49.17412109,-121.68317345,0.00000000,
5.5590,-0.1104,-0.8825,0.4348,0.2491,1.0762,-0.9560,-0.1459,-0.1694,-0.0288,854.3982,-4.8000,42.2400,-26.3400,102.964,63.054,14.250,49.17412109,-121.68317345,0.00000000,
5.5620,-0.1104,-0.8825,0.4348,0.2491,1.0762,-0.9560,-0.1459,-0.1694,-0.0288,854.4321,-4.8000,42.2400,-26.3400,102.964,63.054,14.250,49.17412109,-121.68317345,0.00000000,
5.5690,-0.1104,-0.8825,0.4348,0.2491,1.0762,-0.9560,-0.1459,-0.1694,-0.0288,854.4321,-4.8000,42.2400,-26.3400,102.964,63.054,14.250,49.17412109,-121.68317345,0.00000000,
5.5880,-0.1104,-0.8825,0.4348,0.1348,0.2619,0.3503,-0.1459,-0.1694,-0.0288,854.4321,-4.8000,42.2400,-26.3400,102.964,63.054,14.250,49.17412109,-121.68317345,0.00000000,
5.6110,-0.0342,-0.9274,0.5071,0.1348,0.2619,0.3503,-0.1459,-0.1694,-0.0288,854.4321,-4.8000,42.2400,-26.3400,110.573,61.276,3.858,49.17412109,-121.68317345,0.00000000,
5.6140,-0.0342,-0.9274,0.5071,0.1348,0.2619,0.3503,-0.1459,-0.1694,-0.0288,854.4321,-4.6200,42.0000,-26.6400,114.006,61.276,3.858,49.17412109,-121.68317345,0.00000000,
5.6150,-0.0342,-0.9274,0.5071,0.1348,0.2619,0.3503,-0.0682,-0.0852,0.0810,854.4321,-4.6200,42.0000,-26.6400,114.006,61.276,3.858,49.17412109,-121.68317345,0.00000000,
5.6500,-0.0342,-0.9274,0.5071,0.8678,-0.1771,1.0582,-0.0682,-0.0852,0.0810,854.4321,-4.6200,42.0000,-26.6400,114.006,61.276,3.858,49.17412109,-121.68317345,0.00000000,
5.6870,0.0156,-0.8371,0.4827,0.8678,-0.1771,1.0582,-0.0682,-0.0852,0.0810,854.4321,-4.6200,42.0000,-26.6400,120.401,60.017,-1.855,49.17412109,-121.68317345,0.00000000,
5.6940,0.0156,-0.8371,0.4827,0.8678,-0.1771,1.0582,-0.0682,-0.0852,0.0810,854.4321,-4.3800,41.7600,-26.8800,125.741,60.017,-1.855,49.17412109,-121.68317345,0.00000000,
5.6980,0.0156,-0.8371,0.4827,0.8678,-0.1771,1.0582,0.1161,0.2035,0.7436,854.4321,-4.3800,41.7600,-26.8800,125.741,60.017,-1.855,49.17412109,-121.68317345,0.00000000,
5.7070,0.0156,-0.8371,0.4827,1.5482,0.5932,0.6257,0.1161,0.2035,0.7436,854.4321,-4.3800,41.7600,-26.8800,125.741,60.017,-1.855,49.17412109,-121.68317345,0.00000000,
5.7310,-0.2878,-0.9768,0.1397,1.5482,0.5932,0.6257,0.1161,0.2035,0.7436,854.4321,-4.3800,41.7600,-26.8800,77.914,71.866,64.110,49.17412109,-121.68317345,0.00000000,
5.7330,-0.2878,-0.9768,0.1397,1.5482,0.5932,0.6257,0.1161,0.2035,0.7436,854.4321,-4.2000,41.5800,-27.1800,78.698,71.866,64.110,49.17412109,-121.68317345,0.00000000,
5.7350,-0.2878,-0.9768,0.1397,1.5482,0.5932,0.6257,-0.6093,0.1502,0.9332,854.4321,-4.2000,41.5800,-27.1800,78.698,71.866,64.110,49.17412109,-121.68317345,0.00000000,
5.7360,-0.2878,-0.9768,0.1397,1.5482,0.5932,0.6257,-0.6093,0.1502,0.9332,854.4565,-4.2000,41.5800,-27.1800,78.698,71.866,64.110,49.17412109,-121.68317345,0.00000000,
5.7380,-0.2878,-0.9768,0.1397,1.5482,0.5932,0.6257,-0.6093,0.1502,0.9332,854.4565,-4.2000,41.5800,-27.1800,78.698,71.866,64.110,49.17412109,-121.68317345,0.00000000,
5.7730,-0.2878,-0.9768,0.1397,-0.9352,-0.8118,-2.6140,-0.6093,0.1502,0.9332,854.4565,-4.2000,41.5800,-27.1800,78.698,71.866,64.110,49.17412109,-121.68317345,0.00000000,
5.8060,-0.1554,-0.2522,-0.1027,-0.9352,-0.8118,-2.6140,-0.6093,0.1502,0.9332,854.4565,-4.2000,41.5800,-27.1800,27.227,53.555,123.456,49.17412109,-121.68317345,0.00000000,
5.8120,-0.1554,-0.2522,-0.1027,-0.9352,-0.8118,-2.6140,-0.6093,0.1502,0.9332,854.4565,-3.9600,41.3400,-27.4200,27.724,53.555,123.456,49.17412109,-121.68317345,0.00000000,
5.8160,-0.1554,-0.2522,-0.1027,-0.9352,-0.8118,-2.6140,0.6828,-0.4687,-0.0607,854.4565,-3.9600,41.3400,-27.4200,27.724,53.555,123.456,49.17412109,-121.68317345,0.00000000,
5.8330,-0.1554,-0.2522,-0.1027,0.4074,6.0378,-5.4826,0.6828,-0.4687,-0.0607,854.4565,-3.9600,41.3400,-27.4200,27.724,53.555,123.456,49.17412109,-121.68317345,0.00000000,
5.8640,-0.1261,-0.9944,0.3625,0.4074,6.0378,-5.4826,0.6828,-0.4687,-0.0607,854.4565,-3.9600,41.3400,-27.4200,122.315,68.896,19.176,49.17412109,-121.68317345,0.00000000,
5.8680,-0.1261,-0.9944,0.3625,0.4074,6.0378,-5.4826,0.6828,-0.4687,-0.0607,854.4565,-3.7200,41.1600,-27.6600,123.732,68.896,19.176,49.17412109,-121.68317345,0.00000000,
5.8700,-0.1261,-0.9944,0.3625,0.4074,6.0378,-5.4826,-0.5625,-0.8725,0.6083,854.4565,-3.7200,41.1600,-27.6600,123.732,68.896,19.176,49.17412109,-121.68317345,0.00000000,
5.8870,-0.1261,-0.9944,0.3625,0.7794,-1.1577,-0.7336,-0.5625,-0.8725,0.6083,854.4565,-3.7200,41.1600,-27.6600,123.732,68.896,19.176,49.17412109,-121.68317345,0.00000000,
5.9110,-0.1441,-0.8859,0.5687,0.7794,-1.1577,-0.7336,-0.5625,-0.8725,0.6083,854.4565,-3.7200,41.1600,-27.6600,83.785,56.487,14.223,49.17412109,-121.68317345,0.00000000,
5.9130,-0.1441,-0.8859,0.5687,0.7794,-1.1577,-0.7336,-0.5625,-0.8725,0.6083,854.4565,-3.4800,40.9800,-27.8400,85.305,56.487,14.223,49.17412109,-121.68317345,0.00000000,
5.9140,-0.1441,-0.8859,0.5687,0.7794,-1.1577,-0.7336,0.3153,-0.2003,0.4229,854.4565,-3.4800,40.9800,-27.8400,85.305,56.487,14.223,49.17412109,-121.68317345,0.00000000,
5.9160,-0.1441,-0.8859,0.5687,0.7794,-1.1577,-0.7336,0.3153,-0.2003,0.4229,854.4246,-3.4800,40.9800,-27.8400,85.305,56.487,14.223,49.17412109,-121.68317345,0.00000000,
5.9180,-0.1441,-0.8859,0.5687,0.7794,-1.1577,-0.7336,0.3153,-0.2003,0.4229,854.4246,-3.4800,40.9800,-27.8400,85.305,56.487,14.223,49.17412109,-121.68317345,0.00000000,
5.9490,-0.1441,-0.8859,0.5687,0.6910,-0.2586,1.0133,0.3153,-0.2003,0.4229,854.4246,-3.4800,40.9800,-27.8400,85.305,56.487,14.223,49.17412109,-121.68317345,0.00000000,
5.9710,-0.2497,-0.9988,0.3767,0.6910,-0.2586,1.0133,0.3153,-0.2003,0.4229,854.4246,-3.4800,40.9800,-27.8400,97.777,65.656,33.540,49.17412109,-121.68317345,0.00000000,
5.9740,-0.2497,-0.9988,0.3767,0.6910,-0.2586,1.0133,0.3153,-0.2003,0.4229,854.4246,-3.1800,40.8000,-27.9600,98.835,65.656,33.540,49.17412109,-121.68317345,0.00000000,
5.9760,-0.2497,-0.9988,0.3767,0.6910,-0.2586,1.0133,0.6274,0.2482,0.0650,854.4246,-3.1800,40.8000,-27.9600,98.835,65.656,33.540,49.17412109,-121.68317345,0.00000000,
6.0080,-0.2497,-0.9988,0.3767,-0.2768,-1.4477,-0.9883,0.6274,0.2482,0.0650,854.4246,-3.1800,40.8000,-27.9600,98.835,65.656,33.540,49.17412109,-121.68317345,0.00000000,
6.0450,-0.1847,-1.0462,0.4812,-0.2768,-1.4477,-0.9883,0.6274,0.2482,0.0650,854.4246,-3.1800,40.8000,-27.9600,108.563,63.771,20.997,49.17412109,-121.68317345,0.00000000,
6.0510,-0.1847,-1.0462,0.4812,-0.2768,-1.4477,-0.9883,0.6274,0.2482,0.0650,854.4246,-2.8800,40.6800,-28.0800,109.883,63.771,20.997,49.17412109,-121.68317345,0.00000000,
6.0550,-0.1847,-1.0462,0.4812,-0.2768,-1.4477,-0.9883,0.6029,0.2993,-0.1289,854.4246,-2.8800,40.6800,-28.0800,109.883,63.771,20.997,49.17412109,-121.68317345,0.00000000,
6.0690,-0.1847,-1.0462,0.4812,0.4287,-1.9739,-0.0403,0.6029,0.2993,-0.1289,854.4246,-2.8800,40.6800,-28.0800,109.883,63.771,20.997,49.17412109,-121.68317345,0.00000000,
6.0970,-0.1222,-0.8654,0.5105,0.4287,-1.9739,-0.0403,0.6029,0.2993,-0.1289,854.4246,-2.8800,40.6800,-28.0800,100.190,58.759,13.456,49.17412109,-121.68317345,0.00000000,
6.1020,-0.1222,-0.8654,0.5105,0.4287,-1.9739,-0.0403,0.6029,0.2993,-0.1289,854.4246,-2.5200,40.6200,-28.1400,101.498,58.759,13.456,49.17412109,-121.68317345,0.00000000,
6.1080,-0.1222,-0.8654,0.5105,0.4287,-1.9739,-0.0403,0.2748,0.0298,-0.1907,854.4246,-2.5200,40.6200,-28.1400,101.498,58.759,13.456,49.17412109,-121.68317345,0.00000000,
6.1100,-0.1222,-0.8654,0.5105,0.4287,-1.9739,-0.0403,0.2748,0.0298,-0.1907,854.3335,-2.5200,40.6200,-28.1400,101.498,58.759,13.456,49.17412109,-121.68317345,0.00000000,
6.1120,-0.1222,-0.8654,0.5105,0.4287,-1.9739,-0.0403,0.2748,0.0298,-0.1907,854.3335,-2.5200,40.6200,-28.1400,101.498,58.759,13.456,49.17412109,-121.68317345,0.00000000,
6.1270,-0.1222,-0.8654,0.5105,0.8806,-0.1700,0.2302,0.2748,0.0298,-0.1907,854.3335,-2.5200,40.6200,-28.1400,101.498,58.759,13.456,49.17412109,-121.68317345,0.00000000,
6.1620,-0.0459,-1.1019,1.0128,0.8806,-0.1700,0.2302,0.2748,0.0298,-0.1907,854.3335,-2.5200,40.6200,-28.1400,28.787,47.382,2.596,49.17412109,-121.68317345,0.00000000,
6.1690,-0.0459,-1.1019,1.0128,0.8806,-0.1700,0.2302,0.2748,0.0298,-0.1907,854.3335,-2.1600,40.5600,-28.2600,26.954,47.382,2.596,49.17412109,-121.68317345,0.00000000,
6.1750,-0.0459,-1.1019,1.0128,0.8806,-0.1700,0.2302,0.2674,0.0288,-0.1875,854.3335,-2.1600,40.5600,-28.2600,26.954,47.382,2.596,49.17412109,-121.68317345,0.00000000,
6.1930,-0.0459,-1.1019,1.0128,1.3759,-2.4512,5.1134,0.2674,0.0288,-0.1875,854.3335,-2.1600,40.5600,-28.2600,26.954,47.382,2.596,49.17412109,-121.68317345,0.00000000,
6.2170,0.0581,-1.3736,0.9972,1.3759,-2.4512,5.1134,0.2674,0.0288,-0.1875,854.3335,-2.1600,40.5600,-28.2600,28.619,53.974,-3.337,49.17412109,-121.68317345,0.00000000,
6.2220,0.0581,-1.3736,0.9972,1.3759,-2.4512,5.1134,0.2674,0.0288,-0.1875,854.3335,-1.8000,40.5000,-28.3200,9.680,53.974,-3.337,49.17412109,-121.68317345,0.00000000,
6.2260,0.0581,-1.3736,0.9972,1.3759,-2.4512,5.1134,0.5135,-0.2237,-0.3430,854.3335,-1.8000,40.5000,-28.3200,9.680,53.974,-3.337,49.17412109,-121.68317345,0.00000000,
6.2460,0.0581,-1.3736,0.9972,1.9526,-4.8651,5.2590,0.5135,-0.2237,-0.3430,854.3335,-1.8000,40.5000,-28.3200,9.680,53.974,-3.337,49.17412109,-121.68317345,0.00000000,
6.2700,0.0371,0.0659,0.6019,1.9526,-4.8651,5.2590,0.5135,-0.2237,-0.3430,854.3335,-1.8000,40.5000,-28.3200,0.070,-6.237,-3.530,49.17412109,-121.68317345,0.00000000,
6.2710,0.0371,0.0659,0.6019,1.9526,-4.8651,5.2590,0.5135,-0.2237,-0.3430,854.3335,-1.4400,40.4400,-28.3800,-0.411,-6.237,-3.530,49.17412109,-121.68317345,0.00000000,
6.2730,0.0371,0.0659,0.6019,1.9526,-4.8651,5.2590,0.0565,-0.6072,-0.5667,854.3335,-1.4400,40.4400,-28.3800,-0.411,-6.237,-3.530,49.17412109,-121.68317345,0.00000000,
6.2750,0.0371,0.0659,0.6019,1.9526,-4.8651,5.2590,0.0565,-0.6072,-0.5667,854.3906,-1.4400,40.4400,-28.3800,-0.411,-6.237,-3.530,49.17412109,-121.68317345,0.00000000,
6.2760,0.0371,0.0659,0.6019,1.9526,-4.8651,5.2590,0.0565,-0.6072,-0.5667,854.3906,-1.4400,40.4400,-28.3800,-0.411,-6.237,-3.530,49.17412109,-121.68317345,0.00000000,
6.3080,0.0371,0.0659,0.6019,1.2877,9.0820,0.9847,0.0565,-0.6072,-0.5667,854.3906,-1.4400,40.4400,-28.3800,-0.411,-6.237,-3.530,49.17412109,-121.68317345,0.00000000,
6.3310,0.2023,-0.4154,0.0263,1.2877,9.0820,0.9847,0.0565,-0.6072,-0.5667,854.3906,-1.4400,40.4400,-28.3800,-64.630,63.845,-82.586,49.17412109,-121.68317345,0.00000000,
6.3340,0.2023,-0.4154,0.0263,1.2877,9.0820,0.9847,0.0565,-0.6072,-0.5667,854.3906,-1.1400,40.3800,-28.5600,-64.436,63.845,-82.586,49.17412109,-121.68317345,0.00000000,
6.3370,0.2023,-0.4154,0.0263,1.2877,9.0820,0.9847,-0.9523,-0.6839,-0.4069,854.3906,-1.1400,40.3800,-28.5600,-64.436,63.845,-82.586,49.17412109,-121.68317345,0.00000000,
6.3680,0.2023,-0.4154,0.0263,2.4396,4.7484,-4.0063,-0.9523,-0.6839,-0.4069,854.3906,-1.1400,40.3800,-28.5600,-64.436,63.845,-82.586,49.17412109,-121.68317345,0.00000000,
6.3920,-0.1656,-1.4297,1.3900,2.4396,4.7484,-4.0063,-0.9523,-0.6839,-0.4069,854.3906,-1.1400,40.3800,-28.5600,29.168,45.605,6.795,49.17412109,-121.68317345,0.00000000,
6.3950,-0.1656,-1.4297,1.3900,2.4396,4.7484,-4.0063,-0.9523,-0.6839,-0.4069,854.3906,-0.9600,40.3200,-28.7400,28.867,45.605,6.795,49.17412109,-121.68317345,0.00000000,
6.4000,-0.1656,-1.4297,1.3900,2.4396,4.7484,-4.0063,-1.7247,-0.2131,-0.4314,854.3906,-0.9600,40.3200,-28.7400,28.867,45.605,6.795,49.17412109,-121.68317345,0.00000000,
6.4280,-0.1656,-1.4297,1.3900,-1.5092,-5.0357,9.6737,-1.7247,-0.2131,-0.4314,854.3906,-0.9600,40.3200,-28.7400,28.867,45.605,6.795,49.17412109,-121.68317345,0.00000000,
6.4540,0.1011,-2.0014,0.5946,-1.5092,-5.0357,9.6737,-1.7247,-0.2131,-0.4314,854.3906,-0.9600,40.3200,-28.7400,-166.098,73.229,-9.654,49.17412109,-121.68317345,0.00000000,
6.4570,0.1011,-2.0014,0.5946,-1.5092,-5.0357,9.6737,-1.7247,-0.2131,-0.4314,854.3906,-0.7800,40.2600,-28.8600,-165.508,73.229,-9.654,49.17412109,-121.68317345,0.00000000,
6.4600,0.1011,-2.0014,0.5946,-1.5092,-5.0357,9.6737,-0.4975,1.2027,-0.2493,854.3906,-0.7800,40.2600,-28.8600,-165.508,73.229,-9.654,49.17412109,-121.68317345,0.00000000,
6.4640,0.1011,-2.0014,0.5946,-1.5092,-5.0357,9.6737,-0.4975,1.2027,-0.2493,854.4109,-0.7800,40.2600,-28.8600,-165.508,73.229,-9.654,49.17412109,-121.68317345,0.00000000,
6.4680,0.1011,-2.0014,0.5946,-1.5092,-5.0357,9.6737,-0.4975,1.2027,-0.2493,854.4109,-0.7800,40.2600,-28.8600,-165.508,73.229,-9.654,49.17412109,-121.68317345,0.00000000,
6.4870,0.1011,-2.0014,0.5946,1.1019,-10.4556,2.3205,-0.4975,1.2027,-0.2493,854.4109,-0.7800,40.2600,-28.8600,-165.508,73.229,-9.654,49.17412109,-121.68317345,0.00000000,
6.5090,0.2927,-0.6988,0.3136,1.1019,-10.4556,2.3205,-0.4975,1.2027,-0.2493,854.4109,-0.7800,40.2600,-28.8600,-82.173,58.454,-43.021,49.17412109,-121.68317345,0.00000000,
6.5120,0.2927,-0.6988,0.3136,1.1019,-10.4556,2.3205,-0.4975,1.2027,-0.2493,854.4109,-0.7200,40.2600,-28.9800,-82.341,58.454,-43.021,49.17412109,-121.68317345,0.00000000,
6.5150,0.2927,-0.6988,0.3136,1.1019,-10.4556,2.3205,1.5137,2.4384,-0.7191,854.4109,-0.7200,40.2600,-28.9800,-82.341,58.454,-43.021,49.17412109,-121.68317345,0.00000000,
6.5480,0.2927,-0.6988,0.3136,3.1936,1.9594,-1.2268,1.5137,2.4384,-0.7191,854.4109,-0.7200,40.2600,-28.9800,-82.341,58.454,-43.021,49.17412109,-121.68317345,0.00000000,
6.5800,0.3582,-0.2033,0.3205,3.1936,1.9594,-1.2268,1.5137,2.4384,-0.7191,854.4109,-0.7200,40.2600,-28.9800,-35.743,22.932,-48.178,49.17412109,-121.68317345,0.00000000,
6.5880,0.3582,-0.2033,0.3205,3.1936,1.9594,-1.2268,1.5137,2.4384,-0.7191,854.4109,-0.6000,40.2600,-29.1000,-35.957,22.932,-48.178,49.17412109,-121.68317345,0.00000000,
6.5890,0.3582,-0.2033,0.3205,3.1936,1.9594,-1.2268,0.3143,3.1159,-1.0045,854.4109,-0.6000,40.2600,-29.1000,-35.957,22.932,-48.178,49.17412109,-121.68317345,0.00000000,
6.6050,0.3582,-0.2033,0.3205,3.9229,6.6338,-1.5054,0.3143,3.1159,-1.0045,854.4109,-0.6000,40.2600,-29.1000,-35.957,22.932,-48.178,49.17412109,-121.68317345,0.00000000,
6.6290,0.1603,-0.9216,0.2100,3.9229,6.6338,-1.5054,0.3143,3.1159,-1.0045,854.4109,-0.6000,40.2600,-29.1000,-123.791,74.003,-37.344,49.17412109,-121.68317345,0.00000000,
6.6300,0.1603,-0.9216,0.2100,3.9229,6.6338,-1.5054,0.3143,3.1159,-1.0045,854.4109,-0.6000,40.2600,-29.2200,-123.890,74.003,-37.344,49.17412109,-121.68317345,0.00000000,
6.6320,0.1603,-0.9216,0.2100,3.9229,6.6338,-1.5054,-0.7478,3.9841,0.8948,854.4109,-0.6000,40.2600,-29.2200,-123.890,74.003,-37.344,49.17412109,-121.68317345,0.00000000,
6.6340,0.1603,-0.9216,0.2100,3.9229,6.6338,-1.5054,-0.7478,3.9841,0.8948,854.4744,-0.6000,40.2600,-29.2200,-123.890,74.003,-37.344,49.17412109,-121.68317345,0.00000000,
6.6350,0.1603,-0.9216,0.2100,3.9229,6.6338,-1.5054,-0.7478,3.9841,0.8948,854.4744,-0.6000,40.2600,-29.2200,-123.890,74.003,-37.344,49.17412109,-121.68317345,0.00000000,
6.6670,0.1603,-0.9216,0.2100,3.2904,-0.2380,-1.9274,-0.7478,3.9841,0.8948,854.4744,-0.6000,40.2600,-29.2200,-123.890,74.003,-37.344,49.17412109,-121.68317345,0.00000000,
6.7000,-0.1954,-1.1468,0.1250,3.2904,-0.2380,-1.9274,-0.7478,3.9841,0.8948,854.4744,-0.6000,40.2600,-29.2200,105.582,78.563,57.393,49.17412109,-121.68317345,0.00000000,
6.7080,-0.1954,-1.1468,0.1250,3.2904,-0.2380,-1.9274,-0.7478,3.9841,0.8948,854.4744,-0.5400,40.3200,-29.1000,105.607,78.563,57.393,49.17412109,-121.68317345,0.00000000,
6.7100,-0.1954,-1.1468,0.1250,3.2904,-0.2380,-1.9274,0.6232,3.7785,1.4541,854.4744,-0.5400,40.3200,-29.1000,105.607,78.563,57.393,49.17412109,-121.68317345,0.00000000,
6.7250,-0.1954,-1.1468,0.1250,1.4233,-2.7125,-2.2851,0.6232,3.7785,1.4541,854.4744,-0.5400,40.3200,-29.1000,105.607,78.563,57.393,49.17412109,-121.68317345,0.00000000,
6.7490,-0.2668,-0.8761,-0.0079,1.4233,-2.7125,-2.2851,0.6232,3.7785,1.4541,854.4744,-0.5400,40.3200,-29.1000,65.763,73.058,91.692,49.17412109,-121.68317345,0.00000000,
6.7500,-0.2668,-0.8761,-0.0079,1.4233,-2.7125,-2.2851,0.6232,3.7785,1.4541,854.4744,-0.2400,40.3800,-28.5000,65.797,73.058,91.692,49.17412109,-121.68317345,0.00000000,
6.7520,-0.2668,-0.8761,-0.0079,1.4233,-2.7125,-2.2851,1.3476,3.7369,0.2248,854.4744,-0.2400,40.3800,-28.5000,65.797,73.058,91.692,49.17412109,-121.68317345,0.00000000,
6.7870,-0.2668,-0.8761,-0.0079,1.6438,-0.3702,-3.3228,1.3476,3.7369,0.2248,854.4744,-0.2400,40.3800,-28.5000,65.797,73.058,91.692,49.17412109,-121.68317345,0.00000000,
6.8120,-0.3577,-0.8053,-0.1032,1.6438,-0.3702,-3.3228,1.3476,3.7369,0.2248,854.4744,-0.2400,40.3800,-28.5000,48.320,65.191,106.089,49.17412109,-121.68317345,0.00000000,
6.8150,-0.3577,-0.8053,-0.1032,1.6438,-0.3702,-3.3228,1.3476,3.7369,0.2248,854.4744,0.1200,40.3200,-27.6000,48.181,65.191,106.089,49.17412109,-121.68317345,0.00000000,
6.8180,-0.3577,-0.8053,-0.1032,1.6438,-0.3702,-3.3228,1.0919,3.8818,-0.1886,854.4744,0.1200,40.3200,-27.6000,48.181,65.191,106.089,49.17412109,-121.68317345,0.00000000,
6.8210,-0.3577,-0.8053,-0.1032,1.6438,-0.3702,-3.3228,1.0919,3.8818,-0.1886,854.2571,0.1200,40.3200,-27.6000,48.181,65.191,106.089,49.17412109,-121.68317345,0.00000000,
6.8240,-0.3577,-0.8053,-0.1032,1.6438,-0.3702,-3.3228,1.0919,3.8818,-0.1886,854.2571,0.1200,40.3200,-27.6000,48.181,65.191,106.089,49.17412109,-121.68317345,0.00000000,
6.8460,-0.3577,-0.8053,-0.1032,1.3437,0.1807,-3.7483,1.0919,3.8818,-0.1886,854.2571,0.1200,40.3200,-27.6000,48.181,65.191,106.089,49.17412109,-121.68317345,0.00000000,
6.8770,-0.5350,-0.7432,-0.1515,1.3437,0.1807,-3.7483,1.0919,3.8818,-0.1886,854.2571,0.1200,40.3200,-27.6000,41.470,53.197,105.813,49.17412109,-121.68317345,0.00000000,
6.8910,-0.5350,-0.7432,-0.1515,1.3437,0.1807,-3.7483,1.0919,3.8818,-0.1886,854.2571,0.5400,40.2600,-26.5800,41.084,53.197,105.813,49.17412109,-121.68317345,0.00000000,
6.8960,-0.5350,-0.7432,-0.1515,1.3437,0.1807,-3.7483,0.7020,3.8051,-0.0565,854.2571,0.5400,40.2600,-26.5800,41.084,53.197,105.813,49.17412109,-121.68317345,0.00000000,
6.9090,-0.5350,-0.7432,-0.1515,0.0964,0.7237,-3.3660,0.7020,3.8051,-0.0565,854.2571,0.5400,40.2600,-26.5800,41.084,53.197,105.813,49.17412109,-121.68317345,0.00000000,
6.9350,-0.7119,-0.8429,-0.3440,0.0964,0.7237,-3.3660,0.7020,3.8051,-0.0565,854.2571,0.5400,40.2600,-26.5800,34.152,46.831,115.793,49.17412109,-121.68317345,0.00000000,
6.9400,-0.7119,-0.8429,-0.3440,0.0964,0.7237,-3.3660,0.7020,3.8051,-0.0565,854.2571,0.9000,40.2000,-25.3200,33.566,46.831,115.793,49.17412109,-121.68317345,0.00000000,
6.9450,-0.7119,-0.8429,-0.3440,0.0964,0.7237,-3.3660,0.4495,3.1074,-0.0969,854.2571,0.9000,40.2000,-25.3200,33.566,46.831,115.793,49.17412109,-121.68317345,0.00000000,
6.9710,-0.7119,-0.8429,-0.3440,-1.3857,-0.2522,-4.2527,0.4495,3.1074,-0.0969,854.2571,0.9000,40.2000,-25.3200,33.566,46.831,115.793,49.17412109,-121.68317345,0.00000000,
7.0000,-0.7925,-0.7520,-0.4554,-1.3857,-0.2522,-4.2527,0.4495,3.1074,-0.0969,854.2571,0.9000,40.2000,-25.3200,30.152,39.445,119.885,49.17412109,-121.68317345,0.00000000,
7.0050,-0.7925,-0.7520,-0.4554,-1.3857,-0.2522,-4.2527,0.4495,3.1074,-0.0969,854.2571,1.2000,40.1400,-23.7600,29.247,39.445,119.885,49.17412109,-121.68317345,0.00000000,
7.0100,-0.7925,-0.7520,-0.4554,-1.3857,-0.2522,-4.2527,1.3060,2.1998,-0.5955,854.2571,1.2000,40.1400,-23.7600,29.247,39.445,119.885,49.17412109,-121.68317345,0.00000000,
7.0130,-0.7925,-0.7520,-0.4554,-1.3857,-0.2522,-4.2527,1.3060,2.1998,-0.5955,854.4294,1.2000,40.1400,-23.7600,29.247,39.445,119.885,49.17412109,-121.68317345,0.00000000,
7.0170,-0.7925,-0.7520,-0.4554,-1.3857,-0.2522,-4.2527,1.3060,2.1998,-0.5955,854.4294,1.2000,40.1400,-23.7600,29.247,39.445,119.885,49.17412109,-121.68317345,0.00000000,
7.0240,-0.7925,-0.7520,-0.4554,-2.2485,0.7201,-4.9828,1.3060,2.1998,-0.5955,854.4294,1.2000,40.1400,-23.7600,29.247,39.445,119.885,49.17412109,-121.68317345,0.00000000,
7.0470,-0.7544,-0.6817,-0.3895,-2.2485,0.7201,-4.9828,1.3060,2.1998,-0.5955,854.4294,1.2000,40.1400,-23.7600,30.043,38.761,117.306,49.17412109,-121.68317345,0.00000000,
7.0490,-0.7544,-0.6817,-0.3895,-2.2485,0.7201,-4.9828,1.3060,2.1998,-0.5955,854.4294,1.4400,40.2000,-22.1400,28.854,38.761,117.306,49.17412109,-121.68317345,0.00000000,
7.0510,-0.7544,-0.6817,-0.3895,-2.2485,0.7201,-4.9828,1.4594,1.1079,-1.1910,854.4294,1.4400,40.2000,-22.1400,28.854,38.761,117.306,49.17412109,-121.68317345,0.00000000,
7.0870,-0.7544,-0.6817,-0.3895,-2.1330,1.5820,-4.2981,1.4594,1.1079,-1.1910,854.4294,1.4400,40.2000,-22.1400,28.854,38.761,117.306,49.17412109,-121.68317345,0.00000000,
7.1110,-0.6777,-0.5727,-0.3181,-2.1330,1.5820,-4.2981,1.4594,1.1079,-1.1910,854.4294,1.4400,40.2000,-22.1400,29.267,37.415,115.148,49.17412109,-121.68317345,0.00000000,
7.1140,-0.6777,-0.5727,-0.3181,-2.1330,1.5820,-4.2981,1.4594,1.1079,-1.1910,854.4294,1.5600,40.2600,-20.4000,27.733,37.415,115.148,49.17412109,-121.68317345,0.00000000,
7.1180,-0.6777,-0.5727,-0.3181,-2.1330,1.5820,-4.2981,0.9982,0.3920,-1.7034,854.4294,1.5600,40.2600,-20.4000,27.733,37.415,115.148,49.17412109,-121.68317345,0.00000000,
7.1450,-0.6777,-0.5727,-0.3181,-1.9671,2.9853,-3.7474,0.9982,0.3920,-1.7034,854.4294,1.5600,40.2600,-20.4000,27.733,37.415,115.148,49.17412109,-121.68317345,0.00000000,
7.1750,-0.6064,-0.5962,-0.2273,-1.9671,2.9853,-3.7474,0.9982,0.3920,-1.7034,854.4294,1.5600,40.2600,-20.4000,30.410,42.634,110.546,49.17412109,-121.68317345,0.00000000,
7.1800,-0.6064,-0.5962,-0.2273,-1.9671,2.9853,-3.7474,0.9982,0.3920,-1.7034,854.4294,1.2000,40.5600,-18.7800,28.228,42.634,110.546,49.17412109,-121.68317345,0.00000000,
7.1860,-0.6064,-0.5962,-0.2273,-1.9671,2.9853,-3.7474,-0.1811,0.0469,-1.7300,854.4294,1.2000,40.5600,-18.7800,28.228,42.634,110.546,49.17412109,-121.68317345,0.00000000,
7.1940,-0.6064,-0.5962,-0.2273,-1.9671,2.9853,-3.7474,-0.1811,0.0469,-1.7300,854.5088,1.2000,40.5600,-18.7800,28.228,42.634,110.546,49.17412109,-121.68317345,0.00000000,
7.2000,-0.6064,-0.5962,-0.2273,-1.9671,2.9853,-3.7474,-0.1811,0.0469,-1.7300,854.5088,1.2000,40.5600,-18.7800,28.228,42.634,110.546,49.17412109,-121.68317345,0.00000000,
7.2040,-0.6064,-0.5962,-0.2273,-2.1582,3.1821,-2.8659,-0.1811,0.0469,-1.7300,854.5088,1.2000,40.5600,-18.7800,28.228,42.634,110.546,49.17412109,-121.68317345,0.00000000,
7.2260,-0.6240,-0.7638,-0.3382,-2.1582,3.1821,-2.8659,-0.1811,0.0469,-1.7300,854.5088,1.2000,40.5600,-18.7800,27.093,47.101,118.457,49.17412109,-121.68317345,0.00000000,
7.2290,-0.6240,-0.7638,-0.3382,-2.1582,3.1821,-2.8659,-0.1811,0.0469,-1.7300,854.5088,0.4200,40.9800,-17.1000,24.393,47.101,118.457,49.17412109,-121.68317345,0.00000000,
7.2330,-0.6240,-0.7638,-0.3382,-2.1582,3.1821,-2.8659,-1.9281,-0.0778,-1.4658,854.5088,0.4200,40.9800,-17.1000,24.393,47.101,118.457,49.17412109,-121.68317345,0.00000000,
7.2670,-0.6240,-0.7638,-0.3382,-2.9467,1.7881,-2.9324,-1.9281,-0.0778,-1.4658,854.5088,0.4200,40.9800,-17.1000,24.393,47.101,118.457,49.17412109,-121.68317345,0.00000000,
7.2940,-0.3425,-1.5915,0.5027,-2.9467,1.7881,-2.9324,-1.9281,-0.0778,-1.4658,854.5088,0.4200,40.9800,-17.1000,82.570,69.081,34.268,49.17412109,-121.68317345,0.00000000,
7.2990,-0.3425,-1.5915,0.5027,-2.9467,1.7881,-2.9324,-1.9281,-0.0778,-1.4658,854.5088,-0.5400,41.4600,-15.3000,70.122,69.081,34.268,49.17412109,-121.68317345,0.00000000,
7.3030,-0.3425,-1.5915,0.5027,-2.9467,1.7881,-2.9324,-2.2829,1.0727,-1.0493,854.5088,-0.5400,41.4600,-15.3000,70.122,69.081,34.268,49.17412109,-121.68317345,0.00000000,
7.3320,-0.3425,-1.5915,0.5027,-0.9688,-6.2453,6.6658,-2.2829,1.0727,-1.0493,854.5088,-0.5400,41.4600,-15.3000,70.122,69.081,34.268,49.17412109,-121.68317345,0.00000000,
7.3470,-0.4691,-1.6359,0.1377,-0.9688,-6.2453,6.6658,-2.2829,1.0727,-1.0493,854.5088,-0.5400,41.4600,-15.3000,60.954,73.362,73.637,49.17412109,-121.68317345,0.00000000,
7.3510,-0.4691,-1.6359,0.1377,-0.9688,-6.2453,6.6658,-2.2829,1.0727,-1.0493,854.5088,-1.6200,41.9400,-13.2600,53.036,73.362,73.637,49.17412109,-121.68317345,0.00000000,
7.3520,-0.4691,-1.6359,0.1377,-0.9688,-6.2453,6.6658,0.1768,1.4733,0.0746,854.5088,-1.6200,41.9400,-13.2600,53.036,73.362,73.637,49.17412109,-121.68317345,0.00000000,
7.3540,-0.4691,-1.6359,0.1377,-0.9688,-6.2453,6.6658,0.1768,1.4733,0.0746,854.5361,-1.6200,41.9400,-13.2600,53.036,73.362,73.637,49.17412109,-121.68317345,0.00000000,
7.3560,-0.4691,-1.6359,0.1377,-0.9688,-6.2453,6.6658,0.1768,1.4733,0.0746,854.5361,-1.6200,41.9400,-13.2600,53.036,73.362,73.637,49.17412109,-121.68317345,0.00000000,
7.3840,-0.4691,-1.6359,0.1377,-2.4552,-6.6967,3.4549,0.1768,1.4733,0.0746,854.5361,-1.6200,41.9400,-13.2600,53.036,73.362,73.637,49.17412109,-121.68317345,0.00000000,
7.4050,-0.4280,-0.9372,-0.1496,-2.4552,-6.6967,3.4549,0.1768,1.4733,0.0746,854.5361,-1.6200,41.9400,-13.2600,26.940,64.183,109.262,49.17412109,-121.68317345,0.00000000,
7.4070,-0.4280,-0.9372,-0.1496,-2.4552,-6.6967,3.4549,0.1768,1.4733,0.0746,854.5361,-2.8800,42.3600,-11.1000,21.499,64.183,109.262,49.17412109,-121.68317345,0.00000000,
7.4080,-0.4280,-0.9372,-0.1496,-2.4552,-6.6967,3.4549,1.7364,0.1747,0.4197,854.5361,-2.8800,42.3600,-11.1000,21.499,64.183,109.262,49.17412109,-121.68317345,0.00000000,
7.4440,-0.4280,-0.9372,-0.1496,-1.7115,0.2207,-0.2243,1.7364,0.1747,0.4197,854.5361,-2.8800,42.3600,-11.1000,21.499,64.183,109.262,49.17412109,-121.68317345,0.00000000,
7.4790,-0.2961,-0.5756,-0.0939,-1.7115,0.2207,-0.2243,1.7364,0.1747,0.4197,854.5361,-2.8800,42.3600,-11.1000,20.859,61.648,107.591,49.17412109,-121.68317345,0.00000000,
7.4850,-0.2961,-0.5756,-0.0939,-1.7115,0.2207,-0.2243,1.7364,0.1747,0.4197,854.5361,-4.2600,42.7200,-9.0000,15.522,61.648,107.591,49.17412109,-121.68317345,0.00000000,
7.4920,-0.2961,-0.5756,-0.0939,-1.7115,0.2207,-0.2243,0.7436,-0.0043,-0.1747,854.5361,-4.2600,42.7200,-9.0000,15.522,61.648,107.591,49.17412109,-121.68317345,0.00000000,
7.5090,-0.2961,-0.5756,-0.0939,-0.3566,3.8070,-0.2708,0.7436,-0.0043,-0.1747,854.5361,-4.2600,42.7200,-9.0000,15.522,61.648,107.591,49.17412109,-121.68317345,0.00000000,
7.5390,-0.3176,-0.7686,-0.1686,-0.3566,3.8070,-0.2708,0.7436,-0.0043,-0.1747,854.5361,-4.2600,42.7200,-9.0000,13.220,64.929,117.967,49.17412109,-121.68317345,0.00000000,
7.5440,-0.3176,-0.7686,-0.1686,-0.3566,3.8070,-0.2708,0.7436,-0.0043,-0.1747,854.5361,-5.6400,43.1400,-6.8400,7.529,64.929,117.967,49.17412109,-121.68317345,0.00000000,
7.5460,-0.3176,-0.7686,-0.1686,-0.3566,3.8070,-0.2708,-0.5720,-0.6541,-0.3036,854.5361,-5.6400,43.1400,-6.8400,7.529,64.929,117.967,49.17412109,-121.68317345,0.00000000,
7.5470,-0.3176,-0.7686,-0.1686,-0.3566,3.8070,-0.2708,-0.5720,-0.6541,-0.3036,854.5105,-5.6400,43.1400,-6.8400,7.529,64.929,117.967,49.17412109,-121.68317345,0.00000000,
7.5490,-0.3176,-0.7686,-0.1686,-0.3566,3.8070,-0.2708,-0.5720,-0.6541,-0.3036,854.5105,-5.6400,43.1400,-6.8400,7.529,64.929,117.967,49.17412109,-121.68317345,0.00000000,
7.5640,-0.3176,-0.7686,-0.1686,-0.6416,1.9201,-0.8105,-0.5720,-0.6541,-0.3036,854.5105,-5.6400,43.1400,-6.8400,7.529,64.929,117.967,49.17412109,-121.68317345,0.00000000,
7.5990,-0.2702,-1.0359,-0.2131,-0.6416,1.9201,-0.8105,-0.5720,-0.6541,-0.3036,854.5105,-5.6400,43.1400,-6.8400,4.919,71.624,128.261,49.17412109,-121.68317345,0.00000000,
7.6030,-0.2702,-1.0359,-0.2131,-0.6416,1.9201,-0.8105,-0.5720,-0.6541,-0.3036,854.5105,-7.0800,43.5000,-4.7400,-1.743,71.624,128.261,49.17412109,-121.68317345,0.00000000,
7.6080,-0.2702,-1.0359,-0.2131,-0.6416,1.9201,-0.8105,-0.9545,-1.5968,-0.5593,854.5105,-7.0800,43.5000,-4.7400,-1.743,71.624,128.261,49.17412109,-121.68317345,0.00000000,
7.6270,-0.2702,-1.0359,-0.2131,-0.3409,-0.7068,-0.8098,-0.9545,-1.5968,-0.5593,854.5105,-7.0800,43.5000,-4.7400,-1.743,71.624,128.261,49.17412109,-121.68317345,0.00000000,
7.6500,-0.1099,-1.1801,0.0200,-0.3409,-0.7068,-0.8098,-0.9545,-1.5968,-0.5593,854.5105,-7.0800,43.5000,-4.7400,30.188,84.591,79.704,49.17412109,-121.68317345,0.00000000,
7.6520,-0.1099,-1.1801,0.0200,-0.3409,-0.7068,-0.8098,-0.9545,-1.5968,-0.5593,854.5105,-8.5200,43.8600,-2.8200,19.737,84.591,79.704,49.17412109,-121.68317345,0.00000000,
7.6540,-0.1099,-1.1801,0.0200,-0.3409,-0.7068,-0.8098,-0.2802,-1.4232,-0.6338,854.5105,-8.5200,43.8600,-2.8200,19.737,84.591,79.704,49.17412109,-121.68317345,0.00000000,
7.6850,-0.1099,-1.1801,0.0200,0.8668,-2.0319,1.4276,-0.2802,-1.4232,-0.6338,854.5105,-8.5200,43.8600,-2.8200,19.737,84.591,79.704,49.17412109,-121.68317345,0.00000000,
7.7070,-0.1031,-0.9851,-0.0919,0.8668,-2.0319,1.4276,-0.2802,-1.4232,-0.6338,854.5105,-8.5200,43.8600,-2.8200,-14.049,82.018,131.720,49.17412109,-121.68317345,0.00000000,
7.7090,-0.1031,-0.9851,-0.0919,0.8668,-2.0319,1.4276,-0.2802,-1.4232,-0.6338,854.5105,-10.2000,44.2200,-1.4400,-21.333,82.018,131.720,49.17412109,-121.68317345,0.00000000,
7.7100,-0.1031,-0.9851,-0.0919,0.8668,-2.0319,1.4276,0.4751,-0.6445,0.0053,854.5105,-10.2000,44.2200,-1.4400,-21.333,82.018,131.720,49.17412109,-121.68317345,0.00000000,
7.7120,-0.1031,-0.9851,-0.0919,0.8668,-2.0319,1.4276,0.4751,-0.6445,0.0053,854.5874,-10.2000,44.2200,-1.4400,-21.333,82.018,131.720,49.17412109,-121.68317345,0.00000000,
7.7140,-0.1031,-0.9851,-0.0919,0.8668,-2.0319,1.4276,0.4751,-0.6445,0.0053,854.5874,-10.2000,44.2200,-1.4400,-21.333,82.018,131.720,49.17412109,-121.68317345,0.00000000,
7.7430,-0.1031,-0.9851,-0.0919,0.8365,-0.0652,0.0016,0.4751,-0.6445,0.0053,854.5874,-10.2000,44.2200,-1.4400,-21.333,82.018,131.720,49.17412109,-121.68317345,0.00000000,
7.7780,-0.1065,-1.0701,-0.1369,0.8365,-0.0652,0.0016,0.4751,-0.6445,0.0053,854.5874,-10.2000,44.2200,-1.4400,-26.486,80.794,142.109,49.17412109,-121.68317345,0.00000000,
7.7830,-0.1065,-1.0701,-0.1369,0.8365,-0.0652,0.0016,0.4751,-0.6445,0.0053,854.5874,-12.0600,44.7000,-0.3000,-32.419,80.794,142.109,49.17412109,-121.68317345,0.00000000,
7.7940,-0.1065,-1.0701,-0.1369,0.8365,-0.0652,0.0016,0.8618,0.2780,0.3057,854.5874,-12.0600,44.7000,-0.3000,-32.419,80.794,142.109,49.17412109,-121.68317345,0.00000000,
7.8070,-0.1065,-1.0701,-0.1369,0.8734,-0.8829,-0.8402,0.8618,0.2780,0.3057,854.5874,-12.0600,44.7000,-0.3000,-32.419,80.794,142.109,49.17412109,-121.68317345,0.00000000,
7.8360,-0.1627,-0.8693,-0.1950,0.8734,-0.8829,-0.8402,0.8618,0.2780,0.3057,854.5874,-12.0600,44.7000,-0.3000,-24.205,73.713,140.161,49.17412109,-121.68317345,0.00000000,
7.8420,-0.1627,-0.8693,-0.1950,0.8734,-0.8829,-0.8402,0.8618,0.2780,0.3057,854.5874,-13.9200,45.1800,0.7200,-28.309,73.713,140.161,49.17412109,-121.68317345,0.00000000,
7.8460,-0.1627,-0.8693,-0.1950,0.8734,-0.8829,-0.8402,0.4442,1.0994,0.6551,854.5874,-13.9200,45.1800,0.7200,-28.309,73.713,140.161,49.17412109,-121.68317345,0.00000000,
7.8640,-0.1627,-0.8693,-0.1950,0.5997,1.0316,-1.5389,0.4442,1.0994,0.6551,854.5874,-13.9200,45.1800,0.7200,-28.309,73.713,140.161,49.17412109,-121.68317345,0.00000000,
7.8870,-0.2091,-1.1820,-0.2624,0.5997,1.0316,-1.5389,0.4442,1.0994,0.6551,854.5874,-13.9200,45.1800,0.7200,-29.369,74.151,141.451,49.17412109,-121.68317345,0.00000000,
7.8900,-0.2091,-1.1820,-0.2624,0.5997,1.0316,-1.5389,0.4442,1.0994,0.6551,854.5874,-15.7800,45.6000,1.4400,-32.438,74.151,141.451,49.17412109,-121.68317345,0.00000000,
7.8930,-0.2091,-1.1820,-0.2624,0.5997,1.0316,-1.5389,-0.0224,1.3401,0.8373,854.5874,-15.7800,45.6000,1.4400,-32.438,74.151,141.451,49.17412109,-121.68317345,0.00000000,
7.8960,-0.2091,-1.1820,-0.2624,0.5997,1.0316,-1.5389,-0.0224,1.3401,0.8373,854.5989,-15.7800,45.6000,1.4400,-32.438,74.151,141.451,49.17412109,-121.68317345,0.00000000,
7.8990,-0.2091,-1.1820,-0.2624,0.5997,1.0316,-1.5389,-0.0224,1.3401,0.8373,854.5989,-15.7800,45.6000,1.4400,-32.438,74.151,141.451,49.17412109,-121.68317345,0.00000000,
7.9250,-0.2091,-1.1820,-0.2624,0.4922,-2.1392,-1.8578,-0.0224,1.3401,0.8373,854.5989,-15.7800,45.6000,1.4400,-32.438,74.151,141.451,49.17412109,-121.68317345,0.00000000,
7.9530,0.0366,-1.3638,0.1358,0.4922,-2.1392,-1.8578,-0.0224,1.3401,0.8373,854.5989,-15.7800,45.6000,1.4400,82.807,84.113,-15.105,49.17412109,-121.68317345,0.00000000,
7.9560,0.0366,-1.3638,0.1358,0.4922,-2.1392,-1.8578,-0.0224,1.3401,0.8373,854.5989,-17.5800,46.0800,1.9200,83.426,84.113,-15.105,49.17412109,-121.68317345,0.00000000,
7.9600,0.0366,-1.3638,0.1358,0.4922,-2.1392,-1.8578,0.3665,0.8778,0.4698,854.5989,-17.5800,46.0800,1.9200,83.426,84.113,-15.105,49.17412109,-121.68317345,0.00000000,
7.9870,0.0366,-1.3638,0.1358,2.9362,-3.9387,2.1509,0.3665,0.8778,0.4698,854.5989,-17.5800,46.0800,1.9200,83.426,84.113,-15.105,49.17412109,-121.68317345,0.00000000,
8.0100,0.0264,-0.7506,0.2218,2.9362,-3.9387,2.1509,0.3665,0.8778,0.4698,854.5989,-17.5800,46.0800,1.9200,53.724,73.430,-6.785,49.17412109,-121.68317345,0.00000000,
8.0130,0.0264,-0.7506,0.2218,2.9362,-3.9387,2.1509,0.3665,0.8778,0.4698,854.5989,-19.3800,46.4400,2.2800,55.884,73.430,-6.785,49.17412109,-121.68317345,0.00000000,
8.0170,0.0264,-0.7506,0.2218,2.9362,-3.9387,2.1509,0.7222,1.4477,0.2919,854.5989,-19.3800,46.4400,2.2800,55.884,73.430,-6.785,49.17412109,-121.68317345,0.00000000,
8.0450,0.0264,-0.7506,0.2218,2.7482,2.1208,2.5841,0.7222,1.4477,0.2919,854.5989,-19.3800,46.4400,2.2800,55.884,73.430,-6.785,49.17412109,-121.68317345,0.00000000,
8.0720,0.0523,-0.5615,0.1065,2.7482,2.1208,2.5841,0.7222,1.4477,0.2919,854.5989,-19.3800,46.4400,2.2800,80.009,78.073,-26.156,49.17412109,-121.68317345,0.00000000,
8.0760,0.0523,-0.5615,0.1065,2.7482,2.1208,2.5841,0.7222,1.4477,0.2919,854.5989,-21.0000,46.8000,2.5200,81.936,78.073,-26.156,49.17412109,-121.68317345,0.00000000,
8.0790,0.0523,-0.5615,0.1065,2.7482,2.1208,2.5841,0.6487,1.6831,-0.2194,854.5989,-21.0000,46.8000,2.5200,81.936,78.073,-26.156,49.17412109,-121.68317345,0.00000000,
8.0820,0.0523,-0.5615,0.1065,2.7482,2.1208,2.5841,0.6487,1.6831,-0.2194,854.5850,-21.0000,46.8000,2.5200,81.936,78.073,-26.156,49.17412109,-121.68317345,0.00000000,
8.0870,0.0523,-0.5615,0.1065,2.7482,2.1208,2.5841,0.6487,1.6831,-0.2194,854.5850,-21.0000,46.8000,2.5200,81.936,78.073,-26.156,49.17412109,-121.68317345,0.00000000,
8.1040,0.0523,-0.5615,0.1065,2.8338,4.0248,1.1480,0.6487,1.6831,-0.2194,854.5850,-21.0000,46.8000,2.5200,81.936,78.073,-26.156,49.17412109,-121.68317345,0.00000000,
8.1250,-0.2008,-1.0652,-0.1950,2.8338,4.0248,1.1480,0.6487,1.6831,-0.2194,854.5850,-21.0000,46.8000,2.5200,-33.572,75.276,134.160,49.17412109,-121.68317345,0.00000000,
8.1270,-0.2008,-1.0652,-0.1950,2.8338,4.0248,1.1480,0.6487,1.6831,-0.2194,854.5850,-22.2000,47.0400,2.7000,-34.271,75.276,134.160,49.17412109,-121.68317345,0.00000000,
8.1290,-0.2008,-1.0652,-0.1950,2.8338,4.0248,1.1480,-0.0149,1.8919,-0.3910,854.5850,-22.2000,47.0400,2.7000,-34.271,75.276,134.160,49.17412109,-121.68317345,0.00000000,
8.1670,-0.2008,-1.0652,-0.1950,0.0593,-0.8484,-1.6406,-0.0149,1.8919,-0.3910,854.5850,-22.2000,47.0400,2.7000,-34.271,75.276,134.160,49.17412109,-121.68317345,0.00000000,
8.1930,-0.3586,-1.1849,-0.1413,0.0593,-0.8484,-1.6406,-0.0149,1.8919,-0.3910,854.5850,-22.2000,47.0400,2.7000,-17.756,71.980,111.500,49.17412109,-121.68317345,0.00000000,
8.1980,-0.3586,-1.1849,-0.1413,0.0593,-0.8484,-1.6406,-0.0149,1.8919,-0.3910,854.5850,-23.0400,47.0400,2.8800,-18.150,71.980,111.500,49.17412109,-121.68317345,0.00000000,
8.2020,-0.3586,-1.1849,-0.1413,0.0593,-0.8484,-1.6406,0.0405,1.8557,-0.2908,854.5850,-23.0400,47.0400,2.8800,-18.150,71.980,111.500,49.17412109,-121.68317345,0.00000000,
8.2270,-0.3586,-1.1849,-0.1413,-1.6551,-2.0022,-0.7887,0.0405,1.8557,-0.2908,854.5850,-23.0400,47.0400,2.8800,-18.150,71.980,111.500,49.17412109,-121.68317345,0.00000000,
8.2540,-0.3440,-1.0154,0.0556,-1.6551,-2.0022,-0.7887,0.0405,1.8557,-0.2908,854.5850,-23.0400,47.0400,2.8800,1.287,71.059,80.812,49.17412109,-121.68317345,0.00000000,
8.2580,-0.3440,-1.0154,0.0556,-1.6551,-2.0022,-0.7887,0.0405,1.8557,-0.2908,854.5850,-23.6400,47.1600,2.8200,1.501,71.059,80.812,49.17412109,-121.68317345,0.00000000,
8.2630,-0.3440,-1.0154,0.0556,-1.6551,-2.0022,-0.7887,0.5252,1.8738,-0.0948,854.5850,-23.6400,47.1600,2.8200,1.501,71.059,80.812,49.17412109,-121.68317345,0.00000000,
8.2680,-0.3440,-1.0154,0.0556,-1.6551,-2.0022,-0.7887,0.5252,1.8738,-0.0948,854.5803,-23.6400,47.1600,2.8200,1.501,71.059,80.812,49.17412109,-121.68317345,0.00000000,
8.2700,-0.3440,-1.0154,0.0556,-1.6551,-2.0022,-0.7887,0.5252,1.8738,-0.0948,854.5803,-23.6400,47.1600,2.8200,1.501,71.059,80.812,49.17412109,-121.68317345,0.00000000,
8.2830,-0.3440,-1.0154,0.0556,-1.6628,-0.3096,1.0906,0.5252,1.8738,-0.0948,854.5803,-23.6400,47.1600,2.8200,1.501,71.059,80.812,49.17412109,-121.68317345,0.00000000,
8.3060,-0.6801,-0.6958,-0.1159,-1.6628,-0.3096,1.0906,0.5252,1.8738,-0.0948,854.5803,-23.6400,47.1600,2.8200,-7.778,45.244,99.667,49.17412109,-121.68317345,0.00000000,
8.3080,-0.6801,-0.6958,-0.1159,-1.6628,-0.3096,1.0906,0.5252,1.8738,-0.0948,854.5803,-24.1200,47.2200,2.5200,-7.471,45.244,99.667,49.17412109,-121.68317345,0.00000000,
8.3100,-0.6801,-0.6958,-0.1159,-1.6628,-0.3096,1.0906,0.3185,1.6213,-0.1417,854.5803,-24.1200,47.2200,2.5200,-7.471,45.244,99.667,49.17412109,-121.68317345,0.00000000,
8.3480,-0.6801,-0.6958,-0.1159,-4.9709,2.8334,-0.7830,0.3185,1.6213,-0.1417,854.5803,-24.1200,47.2200,2.5200,-7.471,45.244,99.667,49.17412109,-121.68317345,0.00000000,
8.3750,-0.4647,-0.7291,-0.3274,-4.9709,2.8334,-0.7830,0.3185,1.6213,-0.1417,854.5803,-24.1200,47.2200,2.5200,-20.166,52.057,125.171,49.17412109,-121.68317345,0.00000000,
8.3810,-0.4647,-0.7291,-0.3274,-4.9709,2.8334,-0.7830,0.3185,1.6213,-0.1417,854.5803,-24.3600,47.4000,1.8600,-19.465,52.057,125.171,49.17412109,-121.68317345,0.00000000,
8.3900,-0.4647,-0.7291,-0.3274,-4.9709,2.8334,-0.7830,0.5614,0.7041,-0.2759,854.5803,-24.3600,47.4000,1.8600,-19.465,52.057,125.171,49.17412109,-121.68317345,0.00000000,
8.4030,-0.4647,-0.7291,-0.3274,-2.8381,2.5054,-2.8949,0.5614,0.7041,-0.2759,854.5803,-24.3600,47.4000,1.8600,-19.465,52.057,125.171,49.17412109,-121.68317345,0.00000000,
8.4270,-0.4500,-0.6792,-0.2708,-2.8381,2.5054,-2.8949,0.5614,0.7041,-0.2759,854.5803,-24.3600,47.4000,1.8600,-17.550,52.289,121.033,49.17412109,-121.68317345,0.00000000,
8.4280,-0.4500,-0.6792,-0.2708,-2.8381,2.5054,-2.8949,0.5614,0.7041,-0.2759,854.5803,-24.5400,47.5200,1.0800,-16.697,52.289,121.033,49.17412109,-121.68317345,0.00000000,
8.4300,-0.4500,-0.6792,-0.2708,-2.8381,2.5054,-2.8949,0.4272,0.4975,-0.4155,854.5803,-24.5400,47.5200,1.0800,-16.697,52.289,121.033,49.17412109,-121.68317345,0.00000000,
8.4320,-0.4500,-0.6792,-0.2708,-2.8381,2.5054,-2.8949,0.4272,0.4975,-0.4155,854.4646,-24.5400,47.5200,1.0800,-16.697,52.289,121.033,49.17412109,-121.68317345,0.00000000,
8.4330,-0.4500,-0.6792,-0.2708,-2.8381,2.5054,-2.8949,0.4272,0.4975,-0.4155,854.4646,-24.5400,47.5200,1.0800,-16.697,52.289,121.033,49.17412109,-121.68317345,0.00000000,
8.4640,-0.4500,-0.6792,-0.2708,-2.7126,2.9837,-2.0572,0.4272,0.4975,-0.4155,854.4646,-24.5400,47.5200,1.0800,-16.697,52.289,121.033,49.17412109,-121.68317345,0.00000000,
8.4890,-0.5756,-0.8248,-0.2825,-2.7126,2.9837,-2.0572,0.4272,0.4975,-0.4155,854.4646,-24.5400,47.5200,1.0800,-14.311,52.141,116.140,49.17412109,-121.68317345,0.00000000,
8.4920,-0.5756,-0.8248,-0.2825,-2.7126,2.9837,-2.0572,0.4272,0.4975,-0.4155,854.4646,-24.6000,47.6400,0.2400,-13.347,52.141,116.140,49.17412109,-121.68317345,0.00000000,
8.4960,-0.5756,-0.8248,-0.2825,-2.7126,2.9837,-2.0572,-0.4975,0.6306,-0.4069,854.4646,-24.6000,47.6400,0.2400,-13.347,52.141,116.140,49.17412109,-121.68317345,0.00000000,
8.5250,-0.5756,-0.8248,-0.2825,-3.9730,1.5048,-1.5625,-0.4975,0.6306,-0.4069,854.4646,-24.6000,47.6400,0.2400,-13.347,52.141,116.140,49.17412109,-121.68317345,0.00000000,
8.5520,-0.3411,-1.5055,0.3449,-3.9730,1.5048,-1.5625,-0.4975,0.6306,-0.4069,854.4646,-24.6000,47.6400,0.2400,29.013,72.142,44.679,49.17412109,-121.68317345,0.00000000,
8.5560,-0.3411,-1.5055,0.3449,-3.9730,1.5048,-1.5625,-0.4975,0.6306,-0.4069,854.4646,-24.7200,47.7600,-0.7200,30.498,72.142,44.679,49.17412109,-121.68317345,0.00000000,
8.5620,-0.3411,-1.5055,0.3449,-3.9730,1.5048,-1.5625,-1.1718,1.1228,-0.1044,854.4646,-24.7200,47.7600,-0.7200,30.498,72.142,44.679,49.17412109,-121.68317345,0.00000000,
8.5860,-0.3411,-1.5055,0.3449,-1.5322,-5.1594,4.2983,-1.1718,1.1228,-0.1044,854.4646,-24.7200,47.7600,-0.7200,30.498,72.142,44.679,49.17412109,-121.68317345,0.00000000,
8.6150,-0.3411,-1.2876,0.3654,-1.5322,-5.1594,4.2983,-1.1718,1.1228,-0.1044,854.4646,-24.7200,47.7600,-0.7200,29.721,68.783,43.024,49.17412109,-121.68317345,0.00000000,
8.6200,-0.3411,-1.2876,0.3654,-1.5322,-5.1594,4.2983,-1.1718,1.1228,-0.1044,854.4646,-25.0200,47.8800,-1.6800,31.198,68.783,43.024,49.17412109,-121.68317345,0.00000000,
8.6250,-0.3411,-1.2876,0.3654,-1.5322,-5.1594,4.2983,-0.1939,0.3505,0.3302,854.4646,-25.0200,47.8800,-1.6800,31.198,68.783,43.024,49.17412109,-121.68317345,0.00000000,
8.6290,-0.3411,-1.2876,0.3654,-1.5322,-5.1594,4.2983,-0.1939,0.3505,0.3302,854.5046,-25.0200,47.8800,-1.6800,31.198,68.783,43.024,49.17412109,-121.68317345,0.00000000,
8.6310,-0.3411,-1.2876,0.3654,-1.5322,-5.1594,4.2983,-0.1939,0.3505,0.3302,854.5046,-25.0200,47.8800,-1.6800,31.198,68.783,43.024,49.17412109,-121.68317345,0.00000000,
8.6410,-0.3411,-1.2876,0.3654,-1.3937,-3.0161,4.0008,-0.1939,0.3505,0.3302,854.5046,-25.0200,47.8800,-1.6800,31.198,68.783,43.024,49.17412109,-121.68317345,0.00000000,
8.6660,-0.3078,-0.8082,-0.0636,-1.3937,-3.0161,4.0008,-0.1939,0.3505,0.3302,854.5046,-25.0200,47.8800,-1.6800,-4.820,68.749,101.670,49.17412109,-121.68317345,0.00000000,
8.6680,-0.3078,-0.8082,-0.0636,-1.3937,-3.0161,4.0008,-0.1939,0.3505,0.3302,854.5046,-25.4400,48.0000,-2.5800,-3.646,68.749,101.670,49.17412109,-121.68317345,0.00000000,
8.6690,-0.3078,-0.8082,-0.0636,-1.3937,-3.0161,4.0008,0.7872,-0.7414,-0.0373,854.5046,-25.4400,48.0000,-2.5800,-3.646,68.749,101.670,49.17412109,-121.68317345,0.00000000,
8.7040,-0.3078,-0.8082,-0.0636,-1.1235,1.7011,-0.5324,0.7872,-0.7414,-0.0373,854.5046,-25.4400,48.0000,-2.5800,-3.646,68.749,101.670,49.17412109,-121.68317345,0.00000000,
8.7230,-0.2624,-0.7115,-0.0797,-1.1235,1.7011,-0.5324,0.7872,-0.7414,-0.0373,854.5046,-25.4400,48.0000,-2.5800,-6.905,68.922,106.897,49.17412109,-121.68317345,0.00000000,
8.7250,-0.2624,-0.7115,-0.0797,-1.1235,1.7011,-0.5324,0.7872,-0.7414,-0.0373,854.5046,-25.7400,48.1200,-3.4800,-5.750,68.922,106.897,49.17412109,-121.68317345,0.00000000,
8.7270,-0.2624,-0.7115,-0.0797,-1.1235,1.7011,-0.5324,0.1832,-0.8213,-0.2876,854.5046,-25.7400,48.1200,-3.4800,-5.750,68.922,106.897,49.17412109,-121.68317345,0.00000000,
8.7600,-0.2624,-0.7115,-0.0797,-0.6484,2.6363,-0.4039,0.1832,-0.8213,-0.2876,854.5046,-25.7400,48.1200,-3.4800,-5.750,68.922,106.897,49.17412109,-121.68317345,0.00000000,
8.8030,-0.2565,-0.9861,-0.1418,-0.6484,2.6363,-0.4039,0.1832,-0.8213,-0.2876,854.5046,-25.7400,48.1200,-3.4800,-14.291,73.447,118.926,49.17412109,-121.68317345,0.00000000,
8.8100,-0.2565,-0.9861,-0.1418,-0.6484,2.6363,-0.4039,0.1832,-0.8213,-0.2876,854.5046,-26.1000,48.2400,-4.4400,-13.049,73.447,118.926,49.17412109,-121.68317345,0.00000000,
8.8160,-0.2565,-0.9861,-0.1418,-0.6484,2.6363,-0.4039,-0.7148,-0.8352,0.0991,854.5046,-26.1000,48.2400,-4.4400,-13.049,73.447,118.926,49.17412109,-121.68317345,0.00000000,
8.8300,-0.2565,-0.9861,-0.1418,-0.6484,2.6363,-0.4039,-0.7148,-0.8352,0.0991,854.5862,-26.1000,48.2400,-4.4400,-13.049,73.447,118.926,49.17412109,-121.68317345,0.00000000,
8.8310,-0.2565,-0.9861,-0.1418,-0.6484,2.6363,-0.4039,-0.7148,-0.8352,0.0991,854.5862,-26.1000,48.2400,-4.4400,-13.049,73.447,118.926,49.17412109,-121.68317345,0.00000000,
8.8330,-0.2565,-0.9861,-0.1418,-0.6543,-0.0532,-0.7956,-0.7148,-0.8352,0.0991,854.5862,-26.1000,48.2400,-4.4400,-13.049,73.447,118.926,49.17412109,-121.68317345,0.00000000,
8.8430,-0.0914,-1.1322,-0.0694,-0.6543,-0.0532,-0.7956,-0.7148,-0.8352,0.0991,854.5862,-26.1000,48.2400,-4.4400,-23.485,84.212,127.236,49.17412109,-121.68317345,0.00000000,
8.8450,-0.0914,-1.1322,-0.0694,-0.6543,-0.0532,-0.7956,-0.7148,-0.8352,0.0991,854.5862,-26.4600,48.3600,-5.3400,-22.038,84.212,127.236,49.17412109,-121.68317345,0.00000000,
8.8470,-0.0914,-1.1322,-0.0694,-0.6543,-0.0532,-0.7956,-0.2599,-1.4711,-0.2439,854.5862,-26.4600,48.3600,-5.3400,-22.038,84.212,127.236,49.17412109,-121.68317345,0.00000000,
8.8890,-0.0914,-1.1322,-0.0694,0.6110,-1.4113,-0.3353,-0.2599,-1.4711,-0.2439,854.5862,-26.4600,48.3600,-5.3400,-22.038,84.212,127.236,49.17412109,-121.68317345,0.00000000,
8.9190,-0.0464,-1.2069,-0.0953,0.6110,-1.4113,-0.3353,-0.2599,-1.4711,-0.2439,854.5862,-26.4600,48.3600,-5.3400,-46.226,84.979,154.040,49.17412109,-121.68317345,0.00000000,
8.9250,-0.0464,-1.2069,-0.0953,0.6110,-1.4113,-0.3353,-0.2599,-1.4711,-0.2439,854.5862,-26.8200,48.4800,-6.2400,-44.807,84.979,154.040,49.17412109,-121.68317345,0.00000000,
8.9300,-0.0464,-1.2069,-0.0953,0.6110,-1.4113,-0.3353,0.4389,-1.5798,-0.5113,854.5862,-26.8200,48.4800,-6.2400,-44.807,84.979,154.040,49.17412109,-121.68317345,0.00000000,
8.9410,-0.0464,-1.2069,-0.0953,0.7775,-2.0993,-0.9969,0.4389,-1.5798,-0.5113,854.5862,-26.8200,48.4800,-6.2400,-44.807,84.979,154.040,49.17412109,-121.68317345,0.00000000,
8.9650,-0.0752,-1.2108,-0.3059,0.7775,-2.0993,-0.9969,0.4389,-1.5798,-0.5113,854.5862,-26.8200,48.4800,-6.2400,-45.331,75.416,166.182,49.17412109,-121.68317345,0.00000000,
8.9670,-0.0752,-1.2108,-0.3059,0.7775,-2.0993,-0.9969,0.4389,-1.5798,-0.5113,854.5862,-27.2400,48.6000,-7.0200,-44.591,75.416,166.182,49.17412109,-121.68317345,0.00000000,
8.9690,-0.0752,-1.2108,-0.3059,0.7775,-2.0993,-0.9969,0.5667,-1.2165,-0.4037,854.5862,-27.2400,48.6000,-7.0200,-44.591,75.416,166.182,49.17412109,-121.68317345,0.00000000,
8.9700,-0.0752,-1.2108,-0.3059,0.7775,-2.0993,-0.9969,0.5667,-1.2165,-0.4037,854.5635,-27.2400,48.6000,-7.0200,-44.591,75.416,166.182,49.17412109,-121.68317345,0.00000000,
8.9720,-0.0752,-1.2108,-0.3059,0.7775,-2.0993,-0.9969,0.5667,-1.2165,-0.4037,854.5635,-27.2400,48.6000,-7.0200,-44.591,75.416,166.182,49.17412109,-121.68317345,0.00000000,
9.0110,-0.0752,-1.2108,-0.3059,0.3579,-2.1264,-3.3220,0.5667,-1.2165,-0.4037,854.5635,-27.2400,48.6000,-7.0200,-44.591,75.416,166.182,49.17412109,-121.68317345,0.00000000,
9.0350,-0.0254,-1.0125,-0.3646,0.3579,-2.1264,-3.3220,0.5667,-1.2165,-0.4037,854.5635,-27.2400,48.6000,-7.0200,-47.019,70.153,176.013,49.17412109,-121.68317345,0.00000000,
9.0400,-0.0254,-1.0125,-0.3646,0.3579,-2.1264,-3.3220,0.5667,-1.2165,-0.4037,854.5635,-27.7200,48.7200,-7.8000,-46.561,70.153,176.013,49.17412109,-121.68317345,0.00000000,
9.0480,-0.0254,-1.0125,-0.3646,0.3579,-2.1264,-3.3220,0.6988,-1.0322,-0.0543,854.5635,-27.7200,48.7200,-7.8000,-46.561,70.153,176.013,49.17412109,-121.68317345,0.00000000,
9.0660,-0.0254,-1.0125,-0.3646,0.6753,-0.1669,-3.9600,0.6988,-1.0322,-0.0543,854.5635,-27.7200,48.7200,-7.8000,-46.561,70.153,176.013,49.17412109,-121.68317345,0.00000000,
9.0880,0.0064,-1.2685,-0.2932,0.6753,-0.1669,-3.9600,0.6988,-1.0322,-0.0543,854.5635,-27.7200,48.7200,-7.8000,-57.172,76.981,-178.759,49.17412109,-121.68317345,0.00000000,
9.0910,0.0064,-1.2685,-0.2932,0.6753,-0.1669,-3.9600,0.6988,-1.0322,-0.0543,854.5635,-28.2000,48.8400,-8.4600,-56.689,76.981,-178.759,49.17412109,-121.68317345,0.00000000,
9.0940,0.0064,-1.2685,-0.2932,0.6753,-0.1669,-3.9600,-0.0160,-0.6935,0.1140,854.5635,-28.2000,48.8400,-8.4600,-56.689,76.981,-178.759,49.17412109,-121.68317345,0.00000000,
9.1250,0.0064,-1.2685,-0.2932,1.0557,-2.6851,-3.3155,-0.0160,-0.6935,0.1140,854.5635,-28.2000,48.8400,-8.4600,-56.689,76.981,-178.759,49.17412109,-121.68317345,0.00000000,
