
time,gFx,gFy,gFz,ax,ay,az,wx,wy,wz,Latitude,Longitude,Speed (m/s),
0.0940,-0.4482,-0.0406,0.9046,0.0000,0.0000,0.0000,0.0000,0.0000,0.0000,0.00000000,0.00000000,0.00000000,
0.1510,-0.5247,0.0771,0.8795,0.0000,0.0000,0.0000,0.0000,0.0000,0.0000,49.27917225,-122.98109167,0.00000000,
0.1700,-0.5247,0.0771,0.8795,0.0000,0.0000,0.0000,0.5544,0.9719,0.6349,49.27917225,-122.98109167,0.00000000,
0.1710,-0.5247,0.0771,0.8795,0.0000,0.0000,0.0000,0.5544,0.9719,0.6349,49.27917225,-122.98109167,0.00000000,
0.2270,-0.5379,0.1284,0.8429,0.0000,0.0000,0.0000,0.5544,0.9719,0.6349,49.27917225,-122.98109167,0.00000000,
0.2470,-0.5379,0.1284,0.8429,0.0000,0.0000,0.0000,0.5778,0.7756,0.7904,49.27917225,-122.98109167,0.00000000,
0.2480,-0.5379,0.1284,0.8429,0.3637,0.2853,0.1430,0.5778,0.7756,0.7904,49.27917225,-122.98109167,0.00000000,
0.2840,-0.6572,0.1505,0.8236,0.3637,0.2853,0.1430,0.5778,0.7756,0.7904,49.27917225,-122.98109167,0.00000000,
0.3050,-0.6572,0.1505,0.8236,0.1636,-0.4163,0.4917,0.5778,0.7756,0.7904,49.27917225,-122.98109167,0.00000000,
0.3050,-0.6572,0.1505,0.8236,0.1636,-0.4163,0.4917,0.8567,1.7343,1.3417,49.27917225,-122.98109167,0.00000000,
0.3600,-0.6628,0.2327,0.6848,0.1636,-0.4163,0.4917,0.8567,1.7343,1.3417,49.27917225,-122.98109167,0.00000000,
0.3810,-0.6628,0.2327,0.6848,0.1636,-0.4163,0.4917,1.0935,2.2062,1.8536,49.27917225,-122.98109167,0.00000000,
0.3830,-0.6628,0.2327,0.6848,0.2118,-0.9120,0.6540,1.0935,2.2062,1.8536,49.27917225,-122.98109167,0.00000000,
0.4180,-0.7629,0.2469,0.5783,0.2118,-0.9120,0.6540,1.0935,2.2062,1.8536,49.27917225,-122.98109167,0.00000000,
0.4370,-0.7629,0.2469,0.5783,0.4343,-1.1761,0.7627,1.0935,2.2062,1.8536,49.27917225,-122.98109167,0.00000000,
0.4380,-0.7629,0.2469,0.5783,0.4343,-1.1761,0.7627,1.9382,2.3499,1.4183,49.27917225,-122.98109167,0.00000000,
0.4940,-0.8974,0.2480,0.5065,0.4343,-1.1761,0.7627,1.9382,2.3499,1.4183,49.27917225,-122.98109167,0.00000000,
0.5130,-0.8974,0.2480,0.5065,0.4343,-1.1761,0.7627,0.9012,2.3872,0.9167,49.27917225,-122.98109167,0.00000000,
0.5140,-0.8974,0.2480,0.5065,0.1168,-1.8478,0.7334,0.9012,2.3872,0.9167,49.27917225,-122.98109167,0.00000000,
0.5510,-0.7694,0.3728,0.4859,0.1168,-1.8478,0.7334,0.9012,2.3872,0.9167,49.27917225,-122.98109167,0.00000000,
0.5700,-0.7694,0.3728,0.4859,0.1168,-1.8478,0.7334,0.2158,1.5905,0.1291,49.27917225,-122.98109167,0.00000000,
0.5720,-0.7694,0.3728,0.4859,-0.4355,-1.6304,1.4716,0.2158,1.5905,0.1291,49.27917225,-122.98109167,0.00000000,
0.6270,-0.8469,0.4478,0.3108,-0.4355,-1.6304,1.4716,0.2158,1.5905,0.1291,49.27917225,-122.98109167,0.00000000,
0.6470,-0.8469,0.4478,0.3108,-0.4355,-1.6304,1.4716,1.2607,0.7245,0.4219,49.27917225,-122.98109167,0.00000000,
0.6480,-0.8469,0.4478,0.3108,0.8753,-0.0300,1.0240,1.2607,0.7245,0.4219,49.27917225,-122.98109167,0.00000000,
0.6850,-0.9590,0.5692,0.0600,0.8753,-0.0300,1.0240,1.2607,0.7245,0.4219,49.27917225,-122.98109167,0.00000000,
0.7040,-0.9590,0.5692,0.0600,-0.4015,0.1586,-0.2255,1.2607,0.7245,0.4219,49.27917225,-122.98109167,0.00000000,
0.7050,-0.9590,0.5692,0.0600,-0.4015,0.1586,-0.2255,0.8052,1.5549,0.3437,49.27917225,-122.98109167,0.00000000,
0.7610,-0.7475,0.5387,-0.0058,-0.4015,0.1586,-0.2255,0.8052,1.5549,0.3437,49.27917225,-122.98109167,0.00000000,
0.7790,-0.7475,0.5387,-0.0058,-0.4015,0.1586,-0.2255,0.2805,0.5358,-0.2336,49.27917225,-122.98109167,0.00000000,
0.7800,-0.7475,0.5387,-0.0058,-0.7780,0.0357,-0.3416,0.2805,0.5358,-0.2336,49.27917225,-122.98109167,0.00000000,
0.8190,-0.8101,0.3947,-0.0368,-0.7780,0.0357,-0.3416,0.2805,0.5358,-0.2336,49.27917225,-122.98109167,0.00000000,
0.8380,-0.8101,0.3947,-0.0368,-0.7780,0.0357,-0.3416,0.0744,0.0195,0.0191,49.27917225,-122.98109167,0.00000000,
0.8390,-0.8101,0.3947,-0.0368,1.4816,0.0866,-1.7523,0.0744,0.0195,0.0191,49.27917225,-122.98109167,0.00000000,
0.8930,-0.8734,0.4694,0.0624,1.4816,0.0866,-1.7523,0.0744,0.0195,0.0191,49.27917225,-122.98109167,0.00000000,
0.9130,-0.8734,0.4694,0.0624,1.4816,0.0866,-1.7523,0.0243,0.1708,-0.0231,49.27917225,-122.98109167,0.00000000,
0.9140,-0.8734,0.4694,0.0624,-0.1661,-0.6881,-1.0008,0.0243,0.1708,-0.0231,49.27917225,-122.98109167,0.00000000,
0.9510,-0.7425,0.5843,-0.0730,-0.1661,-0.6881,-1.0008,0.0243,0.1708,-0.0231,49.27917225,-122.98109167,0.00000000,
0.9700,-0.7425,0.5843,-0.0730,-0.1661,-0.6881,-1.0008,0.1865,-0.3964,-0.1645,49.27917225,-122.98109167,0.00000000,
0.9700,-0.7425,0.5843,-0.0730,0.4389,0.2568,-0.9377,0.1865,-0.3964,-0.1645,49.27917225,-122.98109167,0.00000000,
1.0280,-0.8865,0.4702,0.0235,0.4389,0.2568,-0.9377,0.1865,-0.3964,-0.1645,49.27917225,-122.98109167,0.00000000,
1.0470,-0.8865,0.4702,0.0235,0.8241,1.0065,-1.7018,0.1865,-0.3964,-0.1645,49.27917225,-122.98109167,0.00000000,
1.0480,-0.8865,0.4702,0.0235,0.8241,1.0065,-1.7018,0.0686,0.1579,0.0423,49.27917225,-122.98109167,0.00000000,
1.0860,-0.9005,0.6878,-0.1344,0.8241,1.0065,-1.7018,0.0686,0.1579,0.0423,49.27917225,-122.98109167,0.00000000,
1.1030,-0.9005,0.6878,-0.1344,0.8241,1.0065,-1.7018,0.3381,0.0131,0.1764,49.27917225,-122.98109167,0.00000000,
1.1040,-0.9005,0.6878,-0.1344,-0.6963,-0.1676,-0.9552,0.3381,0.0131,0.1764,49.27917225,-122.98109167,0.00000000,
1.1600,-0.7445,0.6999,0.0205,-0.6963,-0.1676,-0.9552,0.3381,0.0131,0.1764,49.27917225,-122.98109167,0.00000000,
1.1780,-0.7445,0.6999,0.0205,-0.6963,-0.1676,-0.9552,0.7467,-0.2604,0.1910,49.27917126,-122.98109140,0.00000000,
1.1790,-0.7445,0.6999,0.0205,0.1652,1.7455,-1.3987,0.7467,-0.2604,0.1910,49.27917126,-122.98109140,0.00000000,
1.2190,-0.7657,0.6592,-0.0988,0.1652,1.7455,-1.3987,0.7467,-0.2604,0.1910,49.27917126,-122.98109140,0.00000000,
1.2370,-0.7657,0.6592,-0.0988,0.0508,1.4547,-0.1088,0.7467,-0.2604,0.1910,49.27917126,-122.98109140,0.00000000,
1.2380,-0.7657,0.6592,-0.0988,0.0508,1.4547,-0.1088,0.8170,0.1586,0.3397,49.27917126,-122.98109140,0.00000000,
1.2940,-0.8374,0.4859,-0.2178,0.0508,1.4547,-0.1088,0.8170,0.1586,0.3397,49.27917126,-122.98109140,0.00000000,
1.3120,-0.8374,0.4859,-0.2178,1.1586,0.1989,-1.5655,0.8170,0.1586,0.3397,49.27917126,-122.98109140,0.00000000,
1.3130,-0.8374,0.4859,-0.2178,1.1586,0.1989,-1.5655,0.4139,-0.1575,0.4476,49.27917126,-122.98109140,0.00000000,
1.3520,-0.8224,0.6063,-0.1220,1.1586,0.1989,-1.5655,0.4139,-0.1575,0.4476,49.27917126,-122.98109140,0.00000000,
1.3690,-0.8224,0.6063,-0.1220,-0.7896,-1.1583,-1.6719,0.4139,-0.1575,0.4476,49.27917126,-122.98109140,0.00000000,
1.3700,-0.8224,0.6063,-0.1220,-0.7896,-1.1583,-1.6719,0.1055,0.1194,0.5895,49.27917126,-122.98109140,0.00000000,
1.4270,-0.7397,0.6243,-0.0626,-0.7896,-1.1583,-1.6719,0.1055,0.1194,0.5895,49.27917126,-122.98109140,0.00000000,
1.4450,-0.7397,0.6243,-0.0626,-0.7896,-1.1583,-1.6719,-0.0260,0.1288,0.2511,49.27917126,-122.98109140,0.00000000,
1.4460,-0.7397,0.6243,-0.0626,-0.1593,0.0375,-0.6078,-0.0260,0.1288,0.2511,49.27917126,-122.98109140,0.00000000,
1.4850,-0.7205,0.6708,-0.2988,-0.1593,0.0375,-0.6078,-0.0260,0.1288,0.2511,49.27917126,-122.98109140,0.00000000,
1.5030,-0.7205,0.6708,-0.2988,0.1805,-0.0328,-1.4880,-0.0260,0.1288,0.2511,49.27917126,-122.98109140,0.00000000,
1.5040,-0.7205,0.6708,-0.2988,0.1805,-0.0328,-1.4880,-0.4626,-0.0384,0.4867,49.27917126,-122.98109140,0.00000000,
1.5600,-0.7954,0.5578,-0.0326,0.1805,-0.0328,-1.4880,-0.4626,-0.0384,0.4867,49.27917126,-122.98109140,0.00000000,
1.5790,-0.7954,0.5578,-0.0326,0.4677,-0.3086,-2.2208,-0.4626,-0.0384,0.4867,49.27917126,-122.98109140,0.00000000,
1.5800,-0.7954,0.5578,-0.0326,0.4677,-0.3086,-2.2208,-1.0452,0.2572,0.2561,49.27917126,-122.98109140,0.00000000,
1.6160,-0.6383,0.6379,-0.0084,0.4677,-0.3086,-2.2208,-1.0452,0.2572,0.2561,49.27917126,-122.98109140,0.00000000,
1.6360,-0.6383,0.6379,-0.0084,-0.7520,-0.8045,-0.7608,-1.0452,0.2572,0.2561,49.27917126,-122.98109140,0.00000000,
1.6360,-0.6383,0.6379,-0.0084,-0.7520,-0.8045,-0.7608,-0.6410,-0.3149,0.2420,49.27917126,-122.98109140,0.00000000,
1.6920,-0.6362,0.6748,0.0883,-0.7520,-0.8045,-0.7608,-0.6410,-0.3149,0.2420,49.27917126,-122.98109140,0.00000000,
1.7110,-0.6362,0.6748,0.0883,1.3427,-0.6482,-0.8468,-0.6410,-0.3149,0.2420,49.27917126,-122.98109140,0.00000000,
1.7120,-0.6362,0.6748,0.0883,1.3427,-0.6482,-0.8468,-0.0713,-1.2108,0.3717,49.27917126,-122.98109140,0.00000000,
1.7590,-0.9491,0.8123,-0.0047,1.3427,-0.6482,-0.8468,-0.0713,-1.2108,0.3717,49.27917126,-122.98109140,0.00000000,
1.7780,-0.9491,0.8123,-0.0047,-1.3682,0.2572,-1.4066,-0.0713,-1.2108,0.3717,49.27917126,-122.98109140,0.00000000,
1.7780,-0.9491,0.8123,-0.0047,-1.3682,0.2572,-1.4066,-0.2291,-0.5022,1.2496,49.27917126,-122.98109140,0.00000000,
1.8170,-0.4130,0.9671,0.1685,-1.3682,0.2572,-1.4066,-0.2291,-0.5022,1.2496,49.27917126,-122.98109140,0.00000000,
1.8370,-0.4130,0.9671,0.1685,-1.8182,0.7010,0.0035,-0.2291,-0.5022,1.2496,49.27917126,-122.98109140,0.00000000,
1.8370,-0.4130,0.9671,0.1685,-1.8182,0.7010,0.0035,0.0268,0.2679,0.8403,49.27917126,-122.98109140,0.00000000,
1.8930,-0.6349,0.8759,0.2425,-1.8182,0.7010,0.0035,0.0268,0.2679,0.8403,49.27917126,-122.98109140,0.00000000,
1.9110,-0.6349,0.8759,0.2425,1.6422,1.6238,0.7487,0.0268,0.2679,0.8403,49.27917126,-122.98109140,0.00000000,
1.9130,-0.6349,0.8759,0.2425,1.6422,1.6238,0.7487,0.5284,0.6253,0.6830,49.27917126,-122.98109140,0.00000000,
1.9500,-0.4787,0.7959,-0.2032,1.6422,1.6238,0.7487,0.5284,0.6253,0.6830,49.27917126,-122.98109140,0.00000000,
1.9690,-0.4787,0.7959,-0.2032,1.6422,1.6238,0.7487,0.0531,0.3176,0.3687,49.27917126,-122.98109140,0.00000000,
1.9700,-0.4787,0.7959,-0.2032,0.0038,0.1227,1.2298,0.0531,0.3176,0.3687,49.27917126,-122.98109140,0.00000000,
2.0270,-0.5717,0.7565,0.0150,0.0038,0.1227,1.2298,0.0531,0.3176,0.3687,49.27917126,-122.98109140,0.00000000,
2.0450,-0.5717,0.7565,0.0150,0.0038,0.1227,1.2298,-0.1274,-0.4706,0.5066,49.27917126,-122.98109140,0.00000000,
2.0460,-0.5717,0.7565,0.0150,-0.7632,-0.6386,-2.7296,-0.1274,-0.4706,0.5066,49.27917126,-122.98109140,0.00000000,
2.0830,-0.5055,0.8070,0.0958,-0.7632,-0.6386,-2.7296,-0.1274,-0.4706,0.5066,49.27917126,-122.98109140,0.00000000,
2.1050,-0.5055,0.8070,0.0958,-0.7632,-0.6386,-2.7296,-0.0542,-0.1798,0.5973,49.27917126,-122.98109140,0.00000000,
2.1070,-0.5055,0.8070,0.0958,-0.1126,-0.7967,-0.6310,-0.0542,-0.1798,0.5973,49.27917126,-122.98109140,0.00000000,
2.1590,-0.2981,1.0362,0.0145,-0.1126,-0.7967,-0.6310,-0.0542,-0.1798,0.5973,49.27917126,-122.98109140,0.00000000,
2.1780,-0.2981,1.0362,0.0145,0.7977,0.7407,-0.3691,-0.0542,-0.1798,0.5973,49.27917126,-122.98109140,0.00000000,
2.1790,-0.2981,1.0362,0.0145,0.7977,0.7407,-0.3691,-0.1733,-0.2831,0.1696,49.27917126,-122.98109140,0.00000000,
2.2170,-0.6351,0.9905,0.2414,0.7977,0.7407,-0.3691,-0.1733,-0.2831,0.1696,49.27917126,-122.98109140,0.00000000,
2.2350,-0.6351,0.9905,0.2414,0.7977,0.7407,-0.3691,0.2308,0.6042,0.2652,49.27917126,-122.98109140,0.00000000,
2.2360,-0.6351,0.9905,0.2414,0.7185,0.6229,-0.1533,0.2308,0.6042,0.2652,49.27917126,-122.98109140,0.00000000,
2.2920,-0.1784,1.0663,-0.0454,0.7185,0.6229,-0.1533,0.2308,0.6042,0.2652,49.27917126,-122.98109140,0.00000000,
2.3110,-0.1784,1.0663,-0.0454,-0.3374,1.7557,0.2488,0.2308,0.6042,0.2652,49.27917126,-122.98109140,0.00000000,
2.3120,-0.1784,1.0663,-0.0454,-0.3374,1.7557,0.2488,-0.1371,0.0349,-0.8841,49.27917126,-122.98109140,0.00000000,
2.3510,-0.6133,0.6953,-0.0220,-0.3374,1.7557,0.2488,-0.1371,0.0349,-0.8841,49.27917126,-122.98109140,0.00000000,
2.3680,-0.6133,0.6953,-0.0220,2.9508,1.3710,0.3912,-0.1371,0.0349,-0.8841,49.27917126,-122.98109140,0.00000000,
2.3690,-0.6133,0.6953,-0.0220,2.9508,1.3710,0.3912,0.0817,0.4873,0.0338,49.27917126,-122.98109140,0.00000000,
2.4260,-0.4727,0.6232,-0.1269,2.9508,1.3710,0.3912,0.0817,0.4873,0.0338,49.27917126,-122.98109140,0.00000000,
2.4450,-0.4727,0.6232,-0.1269,-2.2691,-2.5434,-1.4771,0.0817,0.4873,0.0338,49.27917126,-122.98109140,0.00000000,
2.4460,-0.4727,0.6232,-0.1269,-2.2691,-2.5434,-1.4771,-0.1953,-0.5503,0.5450,49.27917126,-122.98109140,0.00000000,
2.4840,-0.6281,0.7065,0.1496,-2.2691,-2.5434,-1.4771,-0.1953,-0.5503,0.5450,49.27917126,-122.98109140,0.00000000,
2.5010,-0.6281,0.7065,0.1496,-0.4110,-1.7269,-2.4050,-0.1953,-0.5503,0.5450,49.27917126,-122.98109140,0.00000000,
2.5030,-0.6281,0.7065,0.1496,-0.4110,-1.7269,-2.4050,-0.0577,-0.7439,0.9673,49.27917126,-122.98109140,0.00000000,
2.5590,-0.3328,1.1127,0.0792,-0.4110,-1.7269,-2.4050,-0.0577,-0.7439,0.9673,49.27917126,-122.98109140,0.00000000,
2.5770,-0.3328,1.1127,0.0792,-0.1126,-1.6357,1.5712,-0.0577,-0.7439,0.9673,49.27917126,-122.98109140,0.00000000,
2.5780,-0.3328,1.1127,0.0792,-0.1126,-1.6357,1.5712,0.5102,-0.2086,0.4148,49.27917126,-122.98109140,0.00000000,
2.6160,-0.2534,1.0284,0.0491,-0.1126,-1.6357,1.5712,0.5102,-0.2086,0.4148,49.27917126,-122.98109140,0.00000000,
2.6350,-0.2534,1.0284,0.0491,-0.1126,-1.6357,1.5712,0.4896,-0.1344,0.1305,49.27917126,-122.98109140,0.00000000,
2.6360,-0.2534,1.0284,0.0491,-0.5886,1.7667,0.2474,0.4896,-0.1344,0.1305,49.27917126,-122.98109140,0.00000000,
2.6910,-0.3395,1.1931,-0.0304,-0.5886,1.7667,0.2474,0.4896,-0.1344,0.1305,49.27917126,-122.98109140,0.00000000,
2.7110,-0.3395,1.1931,-0.0304,-0.5886,1.7667,0.2474,-0.0157,0.1305,-0.2053,49.27917126,-122.98109140,0.00000000,
2.7120,-0.3395,1.1931,-0.0304,1.7261,2.3056,-0.4981,-0.0157,0.1305,-0.2053,49.27917126,-122.98109140,0.00000000,
2.7580,-0.3653,0.8907,0.1099,1.7261,2.3056,-0.4981,-0.0157,0.1305,-0.2053,49.27917126,-122.98109140,0.00000000,
2.7770,-0.3653,0.8907,0.1099,0.4483,1.6125,-2.4581,-0.0157,0.1305,-0.2053,49.27917126,-122.98109140,0.00000000,
2.7780,-0.3653,0.8907,0.1099,0.4483,1.6125,-2.4581,-0.2904,-0.1056,0.0394,49.27917126,-122.98109140,0.00000000,
2.8160,-0.3689,0.8132,-0.0279,0.4483,1.6125,-2.4581,-0.2904,-0.1056,0.0394,49.27917126,-122.98109140,0.00000000,
2.8350,-0.3689,0.8132,-0.0279,0.1392,-0.1092,1.1815,-0.2904,-0.1056,0.0394,49.27917126,-122.98109140,0.00000000,
2.8360,-0.3689,0.8132,-0.0279,0.1392,-0.1092,1.1815,-0.2764,0.0885,-0.1758,49.27917126,-122.98109140,0.00000000,
2.8910,-0.4275,0.9280,0.1356,0.1392,-0.1092,1.1815,-0.2764,0.0885,-0.1758,49.27917126,-122.98109140,0.00000000,
2.9130,-0.4275,0.9280,0.1356,0.1859,-0.9744,-0.9686,-0.2764,0.0885,-0.1758,49.27917126,-122.98109140,0.00000000,
2.9140,-0.4275,0.9280,0.1356,0.1859,-0.9744,-0.9686,-0.1900,0.0036,0.0079,49.27917126,-122.98109140,0.00000000,
2.9490,-0.2467,0.9761,0.0656,0.1859,-0.9744,-0.9686,-0.1900,0.0036,0.0079,49.27917126,-122.98109140,0.00000000,
2.9680,-0.2467,0.9761,0.0656,0.1859,-0.9744,-0.9686,0.0817,0.0043,-0.3682,49.27917126,-122.98109140,0.00000000,
2.9690,-0.2467,0.9761,0.0656,0.5321,0.4754,1.0218,0.0817,0.0043,-0.3682,49.27917126,-122.98109140,0.00000000,
3.0250,-0.5532,0.7877,-0.1330,0.5321,0.4754,1.0218,0.0817,0.0043,-0.3682,49.27917126,-122.98109140,0.00000000,
3.0460,-0.5532,0.7877,-0.1330,0.5321,0.4754,1.0218,-0.5998,0.0714,-0.1617,49.27917126,-122.98109140,0.00000000,
3.0470,-0.5532,0.7877,-0.1330,1.8151,1.0127,-0.9155,-0.5998,0.0714,-0.1617,49.27917126,-122.98109140,0.00000000,
3.0820,-0.4626,0.9010,0.1203,1.8151,1.0127,-0.9155,-0.5998,0.0714,-0.1617,49.27917126,-122.98109140,0.00000000,
3.1020,-0.4626,0.9010,0.1203,-2.0323,-0.8825,-4.2480,-0.5998,0.0714,-0.1617,49.27917126,-122.98109140,0.00000000,
3.1030,-0.4626,0.9010,0.1203,-2.0323,-0.8825,-4.2480,-1.2112,0.0850,0.4975,49.27917126,-122.98109140,0.00000000,
3.1580,-0.2447,0.8911,0.4217,-2.0323,-0.8825,-4.2480,-1.2112,0.0850,0.4975,49.27917126,-122.98109140,0.00000000,
3.1770,-0.2447,0.8911,0.4217,-2.0323,-0.8825,-4.2480,0.4837,-0.0044,0.2526,49.27917126,-122.98109140,0.00000000,
3.1780,-0.2447,0.8911,0.4217,-0.2759,-0.4835,2.0862,0.4837,-0.0044,0.2526,49.27917126,-122.98109140,0.00000000,
3.2150,-0.3957,1.0372,-0.0568,-0.2759,-0.4835,2.0862,0.4837,-0.0044,0.2526,49.27917126,-122.98109140,0.00000000,
3.2340,-0.3957,1.0372,-0.0568,-0.2759,-0.4835,2.0862,0.4619,-0.1833,0.3593,49.27917126,-122.98109140,0.00000000,
3.2350,-0.3957,1.0372,-0.0568,1.2910,-0.5725,1.8506,0.4619,-0.1833,0.3593,49.27917126,-122.98109140,0.00000000,
3.2910,-0.2915,1.0263,0.1591,1.2910,-0.5725,1.8506,0.4619,-0.1833,0.3593,49.27917126,-122.98109140,0.00000000,
3.3100,-0.2915,1.0263,0.1591,-0.0039,2.0008,-2.9864,0.4619,-0.1833,0.3593,49.27917126,-122.98109140,0.00000000,
3.3110,-0.2915,1.0263,0.1591,-0.0039,2.0008,-2.9864,-0.1862,-0.0665,0.2341,49.27917126,-122.98109140,0.00000000,
3.3480,-0.3287,0.9083,0.1686,-0.0039,2.0008,-2.9864,-0.1862,-0.0665,0.2341,49.27917126,-122.98109140,0.00000000,
3.3680,-0.3287,0.9083,0.1686,-0.0039,2.0008,-2.9864,0.1446,-0.3430,0.0189,49.27917126,-122.98109140,0.00000000,
3.3690,-0.3287,0.9083,0.1686,0.3408,0.7098,1.1593,0.1446,-0.3430,0.0189,49.27917126,-122.98109140,0.00000000,
3.4260,-0.3762,0.9249,0.1201,0.3408,0.7098,1.1593,0.1446,-0.3430,0.0189,49.27917126,-122.98109140,0.00000000,
3.4450,-0.3762,0.9249,0.1201,0.0953,-0.3024,-0.1820,0.1446,-0.3430,0.0189,49.27917126,-122.98109140,0.00000000,
3.4460,-0.3762,0.9249,0.1201,0.0953,-0.3024,-0.1820,0.0025,-0.0810,-0.0673,49.27917126,-122.98109140,0.00000000,
3.4830,-0.2986,0.9596,0.0834,0.0953,-0.3024,-0.1820,0.0025,-0.0810,-0.0673,49.27917126,-122.98109140,0.00000000,
3.5010,-0.2986,0.9596,0.0834,0.0953,-0.3024,-0.1820,0.0632,-0.0796,-0.0818,49.27917126,-122.98109140,0.00000000,
3.5030,-0.2986,0.9596,0.0834,-0.1398,0.3632,-0.2520,0.0632,-0.0796,-0.0818,49.27917126,-122.98109140,0.00000000,
3.5600,-0.2967,0.9385,0.1091,-0.1398,0.3632,-0.2520,0.0632,-0.0796,-0.0818,49.27917126,-122.98109140,0.00000000,
3.5790,-0.2967,0.9385,0.1091,0.8764,-0.0222,-1.0440,0.0632,-0.0796,-0.0818,49.27917126,-122.98109140,0.00000000,
3.5800,-0.2967,0.9385,0.1091,0.8764,-0.0222,-1.0440,0.0262,-0.0026,-0.0467,49.27917126,-122.98109140,0.00000000,
3.6160,-0.4038,0.9299,0.1318,0.8764,-0.0222,-1.0440,0.0262,-0.0026,-0.0467,49.27917126,-122.98109140,0.00000000,
3.6340,-0.4038,0.9299,0.1318,0.1446,0.2515,0.1580,0.0262,-0.0026,-0.0467,49.27917126,-122.98109140,0.00000000,
3.6350,-0.4038,0.9299,0.1318,0.1446,0.2515,0.1580,-0.0027,0.1384,0.1903,49.27917126,-122.98109140,0.00000000,
3.6910,-0.2917,0.9708,0.1806,0.1446,0.2515,0.1580,-0.0027,0.1384,0.1903,49.27917126,-122.98109140,0.00000000,
3.7110,-0.2917,0.9708,0.1806,0.1446,0.2515,0.1580,0.2423,-0.2189,-0.0259,49.27917126,-122.98109140,0.00000000,
3.7130,-0.2917,0.9708,0.1806,-0.2522,0.1833,0.4791,0.2423,-0.2189,-0.0259,49.27917126,-122.98109140,0.00000000,
3.7580,-0.2969,0.9679,0.1139,-0.2522,0.1833,0.4791,0.2423,-0.2189,-0.0259,49.27917126,-122.98109140,0.00000000,
3.7780,-0.2969,0.9679,0.1139,-0.2522,0.1833,0.4791,0.0208,-0.0550,0.0404,49.27917126,-122.98109140,0.00000000,
3.7800,-0.2969,0.9679,0.1139,0.4034,0.2277,-0.1120,0.0208,-0.0550,0.0404,49.27917126,-122.98109140,0.00000000,
3.8150,-0.2779,0.9846,0.1135,0.4034,0.2277,-0.1120,0.0208,-0.0550,0.0404,49.27917126,-122.98109140,0.00000000,
3.8350,-0.2779,0.9846,0.1135,0.4034,0.2277,-0.1120,0.0191,0.0530,0.0008,49.27917126,-122.98109140,0.00000000,
3.8360,-0.2779,0.9846,0.1135,0.5852,0.5393,-0.0530,0.0191,0.0530,0.0008,49.27917126,-122.98109140,0.00000000,
3.8920,-0.3370,0.9309,0.1064,0.5852,0.5393,-0.0530,0.0191,0.0530,0.0008,49.27917126,-122.98109140,0.00000000,
3.9110,-0.3370,0.9309,0.1064,0.5512,0.3173,-0.1609,0.0191,0.0530,0.0008,49.27917126,-122.98109140,0.00000000,
3.9130,-0.3370,0.9309,0.1064,0.5512,0.3173,-0.1609,0.0618,0.1518,0.0533,49.27917126,-122.98109140,0.00000000,
3.9520,-0.2937,0.9687,0.0436,0.5512,0.3173,-0.1609,0.0618,0.1518,0.0533,49.27917126,-122.98109140,0.00000000,
3.9680,-0.2937,0.9687,0.0436,0.5512,0.3173,-0.1609,0.0486,0.1476,-0.1004,49.27917126,-122.98109140,0.00000000,
3.9700,-0.2937,0.9687,0.0436,0.2933,0.0211,-0.0623,0.0486,0.1476,-0.1004,49.27917126,-122.98109140,0.00000000,
4.0250,-0.3762,0.9496,0.0843,0.2933,0.0211,-0.0623,0.0486,0.1476,-0.1004,49.27917126,-122.98109140,0.00000000,
4.0430,-0.3762,0.9496,0.0843,0.2298,0.3026,-0.4313,0.0486,0.1476,-0.1004,49.27917126,-122.98109140,0.00000000,
4.0440,-0.3762,0.9496,0.0843,0.2298,0.3026,-0.4313,-0.0787,0.1324,0.1050,49.27917126,-122.98109140,0.00000000,
4.0810,-0.2912,0.9396,0.1677,0.2298,0.3026,-0.4313,-0.0787,0.1324,0.1050,49.27917126,-122.98109140,0.00000000,
4.1000,-0.2912,0.9396,0.1677,-0.4736,0.2008,-0.5045,-0.0787,0.1324,0.1050,49.27917126,-122.98109140,0.00000000,
4.1020,-0.2912,0.9396,0.1677,-0.4736,0.2008,-0.5045,0.0189,-0.0868,0.0940,49.27917126,-122.98109140,0.00000000,
4.1580,-0.3017,0.9839,0.1161,-0.4736,0.2008,-0.5045,0.0189,-0.0868,0.0940,49.27917126,-122.98109140,0.00000000,
4.1770,-0.3017,0.9839,0.1161,0.3068,0.0310,0.3957,0.0189,-0.0868,0.0940,49.27917126,-122.98109140,0.00000000,
4.1780,-0.3017,0.9839,0.1161,0.3068,0.0310,0.3957,0.0966,0.0249,-0.0664,49.27917126,-122.98109140,0.00000000,
4.2140,-0.3365,0.9336,0.0869,0.3068,0.0310,0.3957,0.0966,0.0249,-0.0664,49.27917126,-122.98109140,0.00000000,
4.2340,-0.3365,0.9336,0.0869,0.7565,0.4030,0.5750,0.0966,0.0249,-0.0664,49.27917126,-122.98109140,0.00000000,
4.2350,-0.3365,0.9336,0.0869,0.7565,0.4030,0.5750,0.2070,-0.0454,-0.2649,49.27917126,-122.98109140,0.00000000,
4.2940,-0.3951,0.9482,0.0506,0.7565,0.4030,0.5750,0.2070,-0.0454,-0.2649,49.27917126,-122.98109140,0.00000000,
4.3110,-0.3951,0.9482,0.0506,0.7565,0.4030,0.5750,-0.0129,-0.0864,-0.0512,49.27917126,-122.98109140,0.00000000,
4.3130,-0.3951,0.9482,0.0506,-0.1162,0.1145,-0.6388,-0.0129,-0.0864,-0.0512,49.27917126,-122.98109140,0.00000000,
4.3480,-0.3335,0.9491,0.0858,-0.1162,0.1145,-0.6388,-0.0129,-0.0864,-0.0512,49.27917126,-122.98109140,0.00000000,
4.3680,-0.3335,0.9491,0.0858,-0.1513,0.1743,-0.2677,-0.0129,-0.0864,-0.0512,49.27917126,-122.98109140,0.00000000,
4.3700,-0.3335,0.9491,0.0858,-0.1513,0.1743,-0.2677,-0.0125,-0.0297,0.0015,49.27917126,-122.98109140,0.00000000,
4.4250,-0.3199,0.9498,0.0985,-0.1513,0.1743,-0.2677,-0.0125,-0.0297,0.0015,49.27917126,-122.98109140,0.00000000,
4.4440,-0.3199,0.9498,0.0985,0.2751,0.2079,-0.1239,-0.0125,-0.0297,0.0015,49.27917126,-122.98109140,0.00000000,
4.4450,-0.3199,0.9498,0.0985,0.2751,0.2079,-0.1239,0.0346,-0.0904,-0.0732,49.27917126,-122.98109140,0.00000000,
4.4810,-0.4158,0.9101,0.0038,0.2751,0.2079,-0.1239,0.0346,-0.0904,-0.0732,49.27917126,-122.98109140,0.00000000,
4.5010,-0.4158,0.9101,0.0038,0.2751,0.2079,-0.1239,-0.2389,0.0537,0.0887,49.27917126,-122.98109140,0.00000000,
4.5020,-0.4158,0.9101,0.0038,0.3400,0.0886,-0.3957,-0.2389,0.0537,0.0887,49.27917126,-122.98109140,0.00000000,
4.5580,-0.3235,0.9611,0.1720,0.3400,0.0886,-0.3957,-0.2389,0.0537,0.0887,49.27917126,-122.98109140,0.00000000,
4.5780,-0.3235,0.9611,0.1720,-0.9770,-0.3216,-0.5490,-0.2389,0.0537,0.0887,49.27917126,-122.98109140,0.00000000,
4.5790,-0.3235,0.9611,0.1720,-0.9770,-0.3216,-0.5490,0.0857,-0.1417,0.3348,49.27917126,-122.98109140,0.00000000,
4.6150,-0.2195,1.0017,0.0838,-0.9770,-0.3216,-0.5490,0.0857,-0.1417,0.3348,49.27917126,-122.98109140,0.00000000,
4.6330,-0.2195,1.0017,0.0838,-0.9770,-0.3216,-0.5490,0.1856,-0.0882,-0.0243,49.27917987,-122.98108240,0.00000000,
4.6330,-0.2195,1.0017,0.0838,0.6145,0.4956,0.5292,0.1856,-0.0882,-0.0243,49.27917987,-122.98108240,0.00000000,
4.6900,-0.3348,0.9496,0.0855,0.6145,0.4956,0.5292,0.1856,-0.0882,-0.0243,49.27917987,-122.98108240,0.00000000,
4.7090,-0.3348,0.9496,0.0855,0.6145,0.4956,0.5292,-0.0015,0.0515,-0.0481,49.27917987,-122.98108240,0.00000000,
4.7090,-0.3348,0.9496,0.0855,0.9221,0.4477,-0.2967,-0.0015,0.0515,-0.0481,49.27917987,-122.98108240,0.00000000,
4.7570,-0.3710,0.9611,0.0349,0.9221,0.4477,-0.2967,-0.0015,0.0515,-0.0481,49.27917987,-122.98108240,0.00000000,
4.7760,-0.3710,0.9611,0.0349,-0.2195,0.0923,-0.2990,-0.0015,0.0515,-0.0481,49.27917987,-122.98108240,0.00000000,
4.7770,-0.3710,0.9611,0.0349,-0.2195,0.0923,-0.2990,-0.1684,-0.1653,0.0083,49.27917987,-122.98108240,0.00000000,
4.8130,-0.3039,0.9363,0.1157,-0.2195,0.0923,-0.2990,-0.1684,-0.1653,0.0083,49.27917987,-122.98108240,0.00000000,
4.8330,-0.3039,0.9363,0.1157,-0.2281,0.1618,-0.7190,-0.1684,-0.1653,0.0083,49.27917987,-122.98108240,0.00000000,
4.8340,-0.3039,0.9363,0.1157,-0.2281,0.1618,-0.7190,-0.1809,-0.2208,0.0121,49.27917987,-122.98108240,0.00000000,
4.8930,-0.2661,0.9699,0.1558,-0.2281,0.1618,-0.7190,-0.1809,-0.2208,0.0121,49.27917987,-122.98108240,0.00000000,
4.9110,-0.2661,0.9699,0.1558,0.3000,0.2717,-0.2513,-0.1809,-0.2208,0.0121,49.27917987,-122.98108240,0.00000000,
4.9120,-0.2661,0.9699,0.1558,0.3000,0.2717,-0.2513,-0.0256,-0.0051,-0.0191,49.27917987,-122.98108240,0.00000000,
4.9480,-0.3404,0.9488,0.1267,0.3000,0.2717,-0.2513,-0.0256,-0.0051,-0.0191,49.27917987,-122.98108240,0.00000000,
4.9680,-0.3404,0.9488,0.1267,0.7173,0.0027,0.9820,-0.0256,-0.0051,-0.0191,49.27917987,-122.98108240,0.00000000,
4.9700,-0.3404,0.9488,0.1267,0.7173,0.0027,0.9820,0.2742,0.2714,-0.0062,49.27917987,-122.98108240,0.00000000,
5.0250,-0.3530,0.9443,0.0861,0.7173,0.0027,0.9820,0.2742,0.2714,-0.0062,49.27917987,-122.98108240,0.00000000,
5.0430,-0.3530,0.9443,0.0861,-0.3085,0.2241,-0.5271,0.2742,0.2714,-0.0062,49.27917987,-122.98108240,0.00000000,
5.0440,-0.3530,0.9443,0.0861,-0.3085,0.2241,-0.5271,0.0648,-0.0014,0.0938,49.27917987,-122.98108240,0.00000000,
5.0810,-0.2916,0.9586,0.0307,-0.3085,0.2241,-0.5271,0.0648,-0.0014,0.0938,49.27917987,-122.98108240,0.00000000,
5.1010,-0.2916,0.9586,0.0307,0.0463,-0.2550,0.4012,0.0648,-0.0014,0.0938,49.27917987,-122.98108240,0.00000000,
5.1020,-0.2916,0.9586,0.0307,0.0463,-0.2550,0.4012,0.0533,-0.0545,0.0287,49.27917987,-122.98108240,0.00000000,
5.1580,-0.2953,0.9812,0.0935,0.0463,-0.2550,0.4012,0.0533,-0.0545,0.0287,49.27917987,-122.98108240,0.00000000,
5.1770,-0.2953,0.9812,0.0935,0.1478,0.4526,-0.9251,0.0533,-0.0545,0.0287,49.27917987,-122.98108240,0.00000000,
5.1780,-0.2953,0.9812,0.0935,0.1478,0.4526,-0.9251,0.0100,-0.0524,0.0175,49.27917987,-122.98108240,0.00000000,
5.2150,-0.2818,0.9568,0.1321,0.1478,0.4526,-0.9251,0.0100,-0.0524,0.0175,49.27917987,-122.98108240,0.00000000,
5.2340,-0.2818,0.9568,0.1321,0.1478,0.4526,-0.9251,0.0744,0.0272,0.0128,49.27917987,-122.98108240,0.00000000,
5.2350,-0.2818,0.9568,0.1321,0.4447,0.2130,-0.0941,0.0744,0.0272,0.0128,49.27917987,-122.98108240,0.00000000,
5.2940,-0.3356,0.9541,0.0794,0.4447,0.2130,-0.0941,0.0744,0.0272,0.0128,49.27917987,-122.98108240,0.00000000,
5.3100,-0.3356,0.9541,0.0794,0.2255,0.1887,0.4386,0.0744,0.0272,0.0128,49.27917987,-122.98108240,0.00000000,
5.3120,-0.3356,0.9541,0.0794,0.2255,0.1887,0.4386,0.1037,-0.0321,-0.0610,49.27917987,-122.98108240,0.00000000,
5.3470,-0.3142,0.9534,0.0481,0.2255,0.1887,0.4386,0.1037,-0.0321,-0.0610,49.27917987,-122.98108240,0.00000000,
5.3670,-0.3142,0.9534,0.0481,-0.0087,0.0715,-0.3556,0.1037,-0.0321,-0.0610,49.27917987,-122.98108240,0.00000000,
5.3690,-0.3142,0.9534,0.0481,-0.0087,0.0715,-0.3556,-0.0174,-0.0485,-0.0395,49.27917987,-122.98108240,0.00000000,
5.4240,-0.2982,0.9731,0.0598,-0.0087,0.0715,-0.3556,-0.0174,-0.0485,-0.0395,49.27917987,-122.98108240,0.00000000,
5.4430,-0.2982,0.9731,0.0598,0.1053,0.0967,-0.3806,-0.0174,-0.0485,-0.0395,49.27917987,-122.98108240,0.00000000,
5.4440,-0.2982,0.9731,0.0598,0.1053,0.0967,-0.3806,-0.0764,-0.0578,0.0217,49.27917987,-122.98108240,0.00000000,
5.4810,-0.3040,0.9808,0.0792,0.1053,0.0967,-0.3806,-0.0764,-0.0578,0.0217,49.27917987,-122.98108240,0.00000000,
5.5000,-0.3040,0.9808,0.0792,0.1053,0.0967,-0.3806,-0.0851,-0.0091,0.0168,49.27917987,-122.98108240,0.00000000,
5.5010,-0.3040,0.9808,0.0792,0.3742,0.2652,-0.4154,-0.0851,-0.0091,0.0168,49.27917987,-122.98108240,0.00000000,
5.5580,-0.3309,0.9280,0.1245,0.3742,0.2652,-0.4154,-0.0851,-0.0091,0.0168,49.27917987,-122.98108240,0.00000000,
5.5770,-0.3309,0.9280,0.1245,0.0773,0.2886,0.0876,-0.0851,-0.0091,0.0168,49.27917987,-122.98108240,0.00000000,
5.5780,-0.3309,0.9280,0.1245,0.0773,0.2886,0.0876,0.0377,0.0715,-0.0971,49.27917987,-122.98108240,0.00000000,
5.6140,-0.3664,0.9146,-0.0182,0.0773,0.2886,0.0876,0.0377,0.0715,-0.0971,49.27917987,-122.98108240,0.00000000,
5.6330,-0.3664,0.9146,-0.0182,0.0773,0.2886,0.0876,-0.3454,0.0413,0.0303,49.27917987,-122.98108240,0.00000000,
5.6340,-0.3664,0.9146,-0.0182,-0.1332,-0.1364,-0.5576,-0.3454,0.0413,0.0303,49.27917987,-122.98108240,0.00000000,
5.6910,-0.3928,0.8822,0.1737,-0.1332,-0.1364,-0.5576,-0.3454,0.0413,0.0303,49.27917987,-122.98108240,0.00000000,
5.7100,-0.3928,0.8822,0.1737,-0.8010,-0.9995,-1.2955,-0.3454,0.0413,0.0303,49.27917987,-122.98108240,0.00000000,
5.7110,-0.3928,0.8822,0.1737,-0.8010,-0.9995,-1.2955,-0.2490,-0.0725,0.8111,49.27917987,-122.98108240,0.00000000,
5.7570,-0.2137,0.8701,0.2291,-0.8010,-0.9995,-1.2955,-0.2490,-0.0725,0.8111,49.27917987,-122.98108240,0.00000000,
5.7760,-0.2137,0.8701,0.2291,-0.8010,-0.9995,-1.2955,0.5099,-0.0341,1.3405,49.27917987,-122.98108240,0.00000000,
5.7770,-0.2137,0.8701,0.2291,-1.5659,-0.4623,1.6591,0.5099,-0.0341,1.3405,49.27917987,-122.98108240,0.00000000,
5.8150,-0.0872,0.8146,0.0554,-1.5659,-0.4623,1.6591,0.5099,-0.0341,1.3405,49.27917987,-122.98108240,0.00000000,
5.8340,-0.0872,0.8146,0.0554,-0.8891,-0.9390,-0.3728,0.5099,-0.0341,1.3405,49.27917987,-122.98108240,0.00000000,
5.8360,-0.0872,0.8146,0.0554,-0.8891,-0.9390,-0.3728,0.0746,-0.1023,1.6435,49.27917987,-122.98108240,0.00000000,
5.8910,0.0267,1.2630,0.0220,-0.8891,-0.9390,-0.3728,0.0746,-0.1023,1.6435,49.27917987,-122.98108240,0.00000000,
5.9100,0.0267,1.2630,0.0220,-0.8891,-0.9390,-0.3728,0.3315,-0.0157,1.3658,49.27917987,-122.98108240,0.00000000,
5.9110,0.0267,1.2630,0.0220,-0.8400,-1.4051,0.8512,0.3315,-0.0157,1.3658,49.27917987,-122.98108240,0.00000000,
5.9470,0.2733,1.0428,0.1273,-0.8400,-1.4051,0.8512,0.3315,-0.0157,1.3658,49.27917987,-122.98108240,0.00000000,
5.9670,0.2733,1.0428,0.1273,-0.8400,-1.4051,0.8512,-0.0858,-0.0950,-0.2472,49.27917987,-122.98108240,0.00000000,
5.9680,0.2733,1.0428,0.1273,1.1591,1.7924,-1.1580,-0.0858,-0.0950,-0.2472,49.27917987,-122.98108240,0.00000000,
6.0240,0.1282,1.0436,0.0667,1.1591,1.7924,-1.1580,-0.0858,-0.0950,-0.2472,49.27917987,-122.98108240,0.00000000,
6.0420,0.1282,1.0436,0.0667,3.8996,1.7135,0.9407,-0.0858,-0.0950,-0.2472,49.27917987,-122.98108240,0.00000000,
6.0450,0.1282,1.0436,0.0667,3.8996,1.7135,0.9407,-0.0307,0.3609,-1.4037,49.27917987,-122.98108240,0.00000000,
6.0800,-0.4306,1.0472,0.0085,3.8996,1.7135,0.9407,-0.0307,0.3609,-1.4037,49.27917987,-122.98108240,0.00000000,
6.0990,-0.4306,1.0472,0.0085,1.3492,-0.3765,-0.7850,-0.0307,0.3609,-1.4037,49.27917987,-122.98108240,0.00000000,
6.1000,-0.4306,1.0472,0.0085,1.3492,-0.3765,-0.7850,-0.1473,0.2599,-0.5797,49.27917987,-122.98108240,0.00000000,
6.1570,-0.1873,0.9477,0.1245,1.3492,-0.3765,-0.7850,-0.1473,0.2599,-0.5797,49.27917987,-122.98108240,0.00000000,
6.1760,-0.1873,0.9477,0.1245,-2.8724,-0.0167,-0.5737,-0.1473,0.2599,-0.5797,49.27917987,-122.98108240,0.00000000,
6.1780,-0.1873,0.9477,0.1245,-2.8724,-0.0167,-0.5737,0.1507,-0.1229,0.1039,49.27917987,-122.98108240,0.00000000,
6.2140,-0.0075,1.2921,0.1498,-2.8724,-0.0167,-0.5737,0.1507,-0.1229,0.1039,49.27917987,-122.98108240,0.00000000,
6.2330,-0.0075,1.2921,0.1498,-2.8724,-0.0167,-0.5737,0.1025,-0.2807,0.1153,49.27917987,-122.98108240,0.00000000,
6.2350,-0.0075,1.2921,0.1498,-0.3726,1.1349,0.8986,0.1025,-0.2807,0.1153,49.27917987,-122.98108240,0.00000000,
6.2920,-0.1531,0.7132,0.0288,-0.3726,1.1349,0.8986,0.1025,-0.2807,0.1153,49.27917987,-122.98108240,0.00000000,
6.3090,-0.1531,0.7132,0.0288,-0.4471,1.1826,0.8321,0.1025,-0.2807,0.1153,49.27917987,-122.98108240,0.00000000,
6.3100,-0.1531,0.7132,0.0288,-0.4471,1.1826,0.8321,0.1411,-0.0386,0.3717,49.27917987,-122.98108240,0.00000000,
6.3470,-0.1951,1.0674,0.0230,-0.4471,1.1826,0.8321,0.1411,-0.0386,0.3717,49.27917987,-122.98108240,0.00000000,
6.3670,-0.1951,1.0674,0.0230,-0.4471,1.1826,0.8321,0.1493,-0.3201,-0.0252,49.27917987,-122.98108240,0.00000000,
6.3680,-0.1951,1.0674,0.0230,0.7370,-1.9777,-0.5308,0.1493,-0.3201,-0.0252,49.27917987,-122.98108240,0.00000000,
6.4240,0.0044,1.0010,0.0471,0.7370,-1.9777,-0.5308,0.1493,-0.3201,-0.0252,49.27917987,-122.98108240,0.00000000,
6.4420,0.0044,1.0010,0.0471,-0.2906,0.7257,-0.7235,0.1493,-0.3201,-0.0252,49.27917987,-122.98108240,0.00000000,
6.4430,0.0044,1.0010,0.0471,-0.2906,0.7257,-0.7235,-0.0239,-0.0138,-0.0219,49.27917987,-122.98108240,0.00000000,
6.4800,-0.0847,1.0054,0.0377,-0.2906,0.7257,-0.7235,-0.0239,-0.0138,-0.0219,49.27917987,-122.98108240,0.00000000,
6.5000,-0.0847,1.0054,0.0377,0.9614,-0.0853,0.0091,-0.0239,-0.0138,-0.0219,49.27917987,-122.98108240,0.00000000,
6.5010,-0.0847,1.0054,0.0377,0.9614,-0.0853,0.0091,0.0247,0.0867,0.0078,49.27917987,-122.98108240,0.00000000,
6.5570,-0.0902,1.0075,0.0097,0.9614,-0.0853,0.0091,0.0247,0.0867,0.0078,49.27917987,-122.98108240,0.00000000,
6.5760,-0.0902,1.0075,0.0097,-0.0819,0.1608,-0.4456,0.0247,0.0867,0.0078,49.27917987,-122.98108240,0.00000000,
6.5770,-0.0902,1.0075,0.0097,-0.0819,0.1608,-0.4456,0.0170,0.0056,-0.0031,49.27917987,-122.98108240,0.00000000,
6.6120,-0.0262,1.0013,0.0988,-0.0819,0.1608,-0.4456,0.0170,0.0056,-0.0031,49.27917987,-122.98108240,0.00000000,
6.6310,-0.0262,1.0013,0.0988,-0.0819,0.1608,-0.4456,0.0693,0.1670,-0.0224,49.27917987,-122.98108240,0.00000000,
6.6310,-0.0262,1.0013,0.0988,0.5287,0.0270,-0.2056,0.0693,0.1670,-0.0224,49.27917987,-122.98108240,0.00000000,
6.6890,-0.0752,1.0353,0.0343,0.5287,0.0270,-0.2056,0.0693,0.1670,-0.0224,49.27917987,-122.98108240,0.00000000,
6.7070,-0.0752,1.0353,0.0343,0.5287,0.0270,-0.2056,0.0625,0.1181,-0.0769,49.27917987,-122.98108240,0.00000000,
6.7080,-0.0752,1.0353,0.0343,0.5105,-0.0330,0.6983,0.0625,0.1181,-0.0769,49.27917987,-122.98108240,0.00000000,
6.7460,-0.0830,1.0377,0.0981,0.5105,-0.0330,0.6983,0.0625,0.1181,-0.0769,49.27917987,-122.98108240,0.00000000,
6.7650,-0.0830,1.0377,0.0981,0.5105,-0.0330,0.6983,0.0405,0.0167,0.1186,49.27917987,-122.98108240,0.00000000,
6.7650,-0.0830,1.0377,0.0981,0.2717,0.2711,-0.1283,0.0405,0.0167,0.1186,49.27917987,-122.98108240,0.00000000,
6.8220,-0.1459,1.0647,0.1267,0.2717,0.2711,-0.1283,0.0405,0.0167,0.1186,49.27917987,-122.98108240,0.00000000,
6.8420,-0.1459,1.0647,0.1267,-0.3298,0.6987,0.6902,0.0405,0.0167,0.1186,49.27917987,-122.98108240,0.00000000,
6.8430,-0.1459,1.0647,0.1267,-0.3298,0.6987,0.6902,0.0931,-0.0533,0.4753,49.27917987,-122.98108240,0.00000000,
6.8800,-0.0427,0.9375,0.1699,-0.3298,0.6987,0.6902,0.0931,-0.0533,0.4753,49.27917987,-122.98108240,0.00000000,
6.8990,-0.0427,0.9375,0.1699,-0.2640,0.1035,0.6490,0.0931,-0.0533,0.4753,49.27917987,-122.98108240,0.00000000,
6.9010,-0.0427,0.9375,0.1699,-0.2640,0.1035,0.6490,0.1278,0.4867,0.1415,49.27917987,-122.98108240,0.00000000,
6.9570,-0.1336,0.9238,-0.0006,-0.2640,0.1035,0.6490,0.1278,0.4867,0.1415,49.27917987,-122.98108240,0.00000000,
6.9750,-0.1336,0.9238,-0.0006,-0.0315,-0.7179,1.4202,0.1278,0.4867,0.1415,49.27917987,-122.98108240,0.00000000,
6.9760,-0.1336,0.9238,-0.0006,-0.0315,-0.7179,1.4202,0.2688,0.1352,-0.1347,49.27917987,-122.98108240,0.00000000,
7.0130,-0.1331,1.0173,-0.0290,-0.0315,-0.7179,1.4202,0.2688,0.1352,-0.1347,49.27917987,-122.98108240,0.00000000,
7.0320,-0.1331,1.0173,-0.0290,-0.9106,-0.3243,-0.2208,0.2688,0.1352,-0.1347,49.27917987,-122.98108240,0.00000000,
7.0330,-0.1331,1.0173,-0.0290,-0.9106,-0.3243,-0.2208,0.3170,-0.3927,-0.1265,49.27917987,-122.98108240,0.00000000,
7.0900,-0.1537,1.0478,-0.0109,-0.9106,-0.3243,-0.2208,0.3170,-0.3927,-0.1265,49.27917987,-122.98108240,0.00000000,
7.1080,-0.1537,1.0478,-0.0109,-0.5357,0.0413,0.1397,0.3170,-0.3927,-0.1265,49.27917987,-122.98108240,0.00000000,
7.1090,-0.1537,1.0478,-0.0109,-0.5357,0.0413,0.1397,0.3032,-0.3821,-0.0141,49.27917987,-122.98108240,0.00000000,
7.1470,-0.1167,0.9825,0.0137,-0.5357,0.0413,0.1397,0.3032,-0.3821,-0.0141,49.27917987,-122.98108240,0.00000000,
7.1660,-0.1167,0.9825,0.0137,-0.0224,0.3746,0.2127,0.3032,-0.3821,-0.0141,49.27917987,-122.98108240,0.00000000,
7.1670,-0.1167,0.9825,0.0137,-0.0224,0.3746,0.2127,0.1922,-0.0044,0.0031,49.27917987,-122.98108240,0.00000000,
7.2230,-0.2144,1.0102,-0.0472,-0.0224,0.3746,0.2127,0.1922,-0.0044,0.0031,49.27917987,-122.98108240,0.00000000,
7.2410,-0.2144,1.0102,-0.0472,-1.2001,-0.2143,0.2834,0.1922,-0.0044,0.0031,49.27917987,-122.98108240,0.00000000,
7.2420,-0.2144,1.0102,-0.0472,-1.2001,-0.2143,0.2834,0.1858,-0.5428,0.2062,49.27917987,-122.98108240,0.00000000,
7.2800,0.0055,1.1532,0.0147,-1.2001,-0.2143,0.2834,0.1858,-0.5428,0.2062,49.27917987,-122.98108240,0.00000000,
7.2990,0.0055,1.1532,0.0147,-1.4347,0.6575,0.1965,0.1858,-0.5428,0.2062,49.27917987,-122.98108240,0.00000000,
7.3000,0.0055,1.1532,0.0147,-1.4347,0.6575,0.1965,-0.0068,0.0375,0.6692,49.27917987,-122.98108240,0.00000000,
7.3570,-0.1287,0.7826,-0.0882,-1.4347,0.6575,0.1965,-0.0068,0.0375,0.6692,49.27917987,-122.98108240,0.00000000,
7.3740,-0.1287,0.7826,-0.0882,-1.4347,0.6575,0.1965,0.1142,0.6431,0.5123,49.27917987,-122.98108240,0.00000000,
7.3750,-0.1287,0.7826,-0.0882,0.0596,0.2285,0.5397,0.1142,0.6431,0.5123,49.27917987,-122.98108240,0.00000000,
7.4130,-0.1565,0.8676,0.0551,0.0596,0.2285,0.5397,0.1142,0.6431,0.5123,49.27917987,-122.98108240,0.00000000,
7.4310,-0.1565,0.8676,0.0551,0.0596,0.2285,0.5397,0.6528,-0.3367,-0.1017,49.27917987,-122.98108240,0.00000000,
7.4330,-0.1565,0.8676,0.0551,-1.4804,-2.2158,0.3959,0.6528,-0.3367,-0.1017,49.27917987,-122.98108240,0.00000000,
7.4900,-0.1271,1.1284,-0.0768,-1.4804,-2.2158,0.3959,0.6528,-0.3367,-0.1017,49.27917987,-122.98108240,0.00000000,
7.5080,-0.1271,1.1284,-0.0768,-1.4668,-0.1579,1.3937,0.6528,-0.3367,-0.1017,49.27917987,-122.98108240,0.00000000,
7.5100,-0.1271,1.1284,-0.0768,-1.4668,-0.1579,1.3937,0.5819,-0.5266,0.2930,49.27917987,-122.98108240,0.00000000,
7.5470,-0.0670,1.2741,-0.1468,-1.4668,-0.1579,1.3937,0.5819,-0.5266,0.2930,49.27917987,-122.98108240,0.00000000,
7.5650,-0.0670,1.2741,-0.1468,-1.4668,-0.1579,1.3937,-0.1178,-0.2058,0.0064,49.27917987,-122.98108240,0.00000000,
7.5660,-0.0670,1.2741,-0.1468,-1.0293,1.3306,0.2675,-0.1178,-0.2058,0.0064,49.27917987,-122.98108240,0.00000000,
7.6210,-0.0262,1.2024,0.0060,-1.0293,1.3306,0.2675,-0.1178,-0.2058,0.0064,49.27917987,-122.98108240,0.00000000,
7.6410,-0.0262,1.2024,0.0060,-0.2735,3.1704,-1.0302,-0.1178,-0.2058,0.0064,49.27917143,-122.98107520,0.00000000,
7.6420,-0.0262,1.2024,0.0060,-0.2735,3.1704,-1.0302,-1.2280,-0.5378,-0.4328,49.27917143,-122.98107520,0.00000000,
7.6800,-0.0157,1.0730,0.1057,-0.2735,3.1704,-1.0302,-1.2280,-0.5378,-0.4328,49.27917143,-122.98107520,0.00000000,
7.6980,-0.0157,1.0730,0.1057,-0.2735,3.1704,-1.0302,-1.6866,-0.1974,-0.3329,49.27917143,-122.98107520,0.00000000,
7.6990,-0.0157,1.0730,0.1057,0.0653,1.1597,0.2781,-1.6866,-0.1974,-0.3329,49.27917143,-122.98107520,0.00000000,
7.7470,0.0752,1.0120,-0.1369,0.0653,1.1597,0.2781,-1.6866,-0.1974,-0.3329,49.27917143,-122.98107520,0.00000000,
7.7650,0.0752,1.0120,-0.1369,1.3469,0.4416,-0.8592,-1.6866,-0.1974,-0.3329,49.27917143,-122.98107520,0.00000000,
7.7670,0.0752,1.0120,-0.1369,1.3469,0.4416,-0.8592,-0.8482,-0.6650,-0.6944,49.27917143,-122.98107520,0.00000000,
7.8220,-0.1374,0.9895,0.2404,1.3469,0.4416,-0.8592,-0.8482,-0.6650,-0.6944,49.27917143,-122.98107520,0.00000000,
7.8420,-0.1374,0.9895,0.2404,0.4751,0.1351,-2.6072,-0.8482,-0.6650,-0.6944,49.27917143,-122.98107520,0.00000000,
7.8430,-0.1374,0.9895,0.2404,0.4751,0.1351,-2.6072,-0.7408,-0.9343,-0.0107,49.27917143,-122.98107520,0.00000000,
7.8800,0.1132,0.8073,0.1982,0.4751,0.1351,-2.6072,-0.7408,-0.9343,-0.0107,49.27917143,-122.98107520,0.00000000,
7.8980,0.1132,0.8073,0.1982,0.4751,0.1351,-2.6072,-0.0385,-0.7453,0.1781,49.27917143,-122.98107520,0.00000000,
7.9000,0.1132,0.8073,0.1982,-0.1022,-0.5014,0.5211,-0.0385,-0.7453,0.1781,49.27917143,-122.98107520,0.00000000,
7.9560,0.0081,0.6607,0.0164,-0.1022,-0.5014,0.5211,-0.0385,-0.7453,0.1781,49.27917143,-122.98107520,0.00000000,
7.9760,0.0081,0.6607,0.0164,1.4514,-2.0507,-0.5414,-0.0385,-0.7453,0.1781,49.27917143,-122.98107520,0.00000000,
7.9770,0.0081,0.6607,0.0164,1.4514,-2.0507,-0.5414,-0.0523,-0.0327,0.7679,49.27917143,-122.98107520,0.00000000,
8.0120,0.0780,0.8067,0.1319,1.4514,-2.0507,-0.5414,-0.0523,-0.0327,0.7679,49.27917143,-122.98107520,0.00000000,
8.0310,0.0780,0.8067,0.1319,-0.7287,-3.4533,-0.9697,-0.0523,-0.0327,0.7679,49.27917143,-122.98107520,0.00000000,
8.0330,0.0780,0.8067,0.1319,-0.7287,-3.4533,-0.9697,0.2810,-0.1339,0.9473,49.27917143,-122.98107520,0.00000000,
8.0900,0.0917,0.9838,0.4404,-0.7287,-3.4533,-0.9697,0.2810,-0.1339,0.9473,49.27917143,-122.98107520,0.00000000,
8.1070,0.0917,0.9838,0.4404,0.5850,-0.9663,0.0508,0.2810,-0.1339,0.9473,49.27917143,-122.98107520,0.00000000,
8.1080,0.0917,0.9838,0.4404,0.5850,-0.9663,0.0508,-0.0066,-0.8765,-0.1476,49.27917143,-122.98107520,0.00000000,
8.1450,0.1644,1.1551,0.6467,0.5850,-0.9663,0.0508,-0.0066,-0.8765,-0.1476,49.27917143,-122.98107520,0.00000000,
8.1650,0.1644,1.1551,0.6467,-0.3887,1.3429,3.7239,-0.0066,-0.8765,-0.1476,49.27917143,-122.98107520,0.00000000,
8.1660,0.1644,1.1551,0.6467,-0.3887,1.3429,3.7239,-0.1610,0.5443,0.2017,49.27917143,-122.98107520,0.00000000,
8.2220,0.3846,1.4362,-0.1744,-0.3887,1.3429,3.7239,-0.1610,0.5443,0.2017,49.27917143,-122.98107520,0.00000000,
8.2410,0.3846,1.4362,-0.1744,-0.3887,1.3429,3.7239,-0.4612,-0.0032,-0.2413,49.27917143,-122.98107520,0.00000000,
8.2420,0.3846,1.4362,-0.1744,2.5387,2.3595,1.4784,-0.4612,-0.0032,-0.2413,49.27917143,-122.98107520,0.00000000,
8.2780,0.2435,0.7022,0.0584,2.5387,2.3595,1.4784,-0.4612,-0.0032,-0.2413,49.27917143,-122.98107520,0.00000000,
8.2980,0.2435,0.7022,0.0584,4.6794,-0.9635,-3.6847,-0.4612,-0.0032,-0.2413,49.27917143,-122.98107520,0.00000000,
8.3000,0.2435,0.7022,0.0584,4.6794,-0.9635,-3.6847,1.3152,1.1901,-0.4183,49.27917143,-122.98107520,0.00000000,
8.3560,0.0267,1.0890,-0.2281,4.6794,-0.9635,-3.6847,1.3152,1.1901,-0.4183,49.27917143,-122.98107520,0.00000000,
8.3740,0.0267,1.0890,-0.2281,-0.5082,1.3699,-0.4570,1.3152,1.1901,-0.4183,49.27917143,-122.98107520,0.00000000,
8.3750,0.0267,1.0890,-0.2281,-0.5082,1.3699,-0.4570,1.2752,-0.3840,-0.0741,49.27917143,-122.98107520,0.00000000,
8.4110,-0.0226,0.8864,-0.0567,-0.5082,1.3699,-0.4570,1.2752,-0.3840,-0.0741,49.27917143,-122.98107520,0.00000000,
8.4300,-0.0226,0.8864,-0.0567,-0.5082,1.3699,-0.4570,1.5633,0.4899,0.0828,49.27917143,-122.98107520,0.00000000,
8.4320,-0.0226,0.8864,-0.0567,0.5490,-0.5956,-0.0211,1.5633,0.4899,0.0828,49.27917143,-122.98107520,0.00000000,
8.4890,-0.0156,0.9527,-0.0517,0.5490,-0.5956,-0.0211,1.5633,0.4899,0.0828,49.27917143,-122.98107520,0.00000000,
8.5080,-0.0156,0.9527,-0.0517,-0.7645,-0.6656,0.6601,1.5633,0.4899,0.0828,49.27917143,-122.98107520,0.00000000,
8.5090,-0.0156,0.9527,-0.0517,-0.7645,-0.6656,0.6601,1.0898,0.8301,0.3012,49.27917143,-122.98107520,0.00000000,
8.5450,-0.0168,1.0250,-0.0915,-0.7645,-0.6656,0.6601,1.0898,0.8301,0.3012,49.27917143,-122.98107520,0.00000000,
8.5640,-0.0168,1.0250,-0.0915,-0.9517,-0.3065,1.1506,1.0898,0.8301,0.3012,49.27917143,-122.98107520,0.00000000,
8.5650,-0.0168,1.0250,-0.0915,-0.9517,-0.3065,1.1506,0.6345,0.5840,0.2100,49.27917143,-122.98107520,0.00000000,
8.6210,0.1490,0.9818,-0.0178,-0.9517,-0.3065,1.1506,0.6345,0.5840,0.2100,49.27917143,-122.98107520,0.00000000,
8.6400,0.1490,0.9818,-0.0178,-0.5607,0.5301,1.4596,0.6345,0.5840,0.2100,49.27917668,-122.98109051,0.70999998,
8.6410,0.1490,0.9818,-0.0178,-0.5607,0.5301,1.4596,0.4861,1.1449,0.2324,49.27917668,-122.98109051,0.70999998,
8.6780,-0.1023,0.9678,-0.1084,-0.5607,0.5301,1.4596,0.4861,1.1449,0.2324,49.27917668,-122.98109051,0.70999998,
8.6980,-0.1023,0.9678,-0.1084,-0.3489,-0.0763,1.2749,0.4861,1.1449,0.2324,49.27917668,-122.98109051,0.70999998,
8.6990,-0.1023,0.9678,-0.1084,-0.3489,-0.0763,1.2749,0.3379,0.7711,0.3228,49.27917668,-122.98109051,0.70999998,
8.7460,-0.1851,1.0650,0.0127,-0.3489,-0.0763,1.2749,0.3379,0.7711,0.3228,49.27917668,-122.98109051,0.70999998,
8.7640,-0.1851,1.0650,0.0127,-2.9368,-0.0047,1.2356,0.3379,0.7711,0.3228,49.27917668,-122.98109051,0.70999998,
8.7660,-0.1851,1.0650,0.0127,-2.9368,-0.0047,1.2356,0.1758,0.2934,-0.0303,49.27917668,-122.98109051,0.70999998,
8.8230,-0.0525,1.3786,-0.0643,-2.9368,-0.0047,1.2356,0.1758,0.2934,-0.0303,49.27917668,-122.98109051,0.70999998,
8.8410,-0.0525,1.3786,-0.0643,-2.0369,1.0474,1.9317,0.1758,0.2934,-0.0303,49.27917668,-122.98109051,0.70999998,
8.8420,-0.0525,1.3786,-0.0643,-2.0369,1.0474,1.9317,-1.2011,0.6201,-0.4502,49.27917668,-122.98109051,0.70999998,
8.8780,0.0515,1.5154,-0.0635,-2.0369,1.0474,1.9317,-1.2011,0.6201,-0.4502,49.27917668,-122.98109051,0.70999998,
8.8980,0.0515,1.5154,-0.0635,-2.0369,1.0474,1.9317,-2.6071,0.0900,-0.6502,49.27917668,-122.98109051,0.70999998,
8.9000,0.0515,1.5154,-0.0635,-1.0674,5.5053,-1.9878,-2.6071,0.0900,-0.6502,49.27917668,-122.98109051,0.70999998,
8.9550,-0.0250,1.4309,-0.1464,-1.0674,5.5053,-1.9878,-2.6071,0.0900,-0.6502,49.27917668,-122.98109051,0.70999998,
8.9750,-0.0250,1.4309,-0.1464,-1.0674,5.5053,-1.9878,-1.8184,0.0989,-0.8817,49.27917668,-122.98109051,0.70999998,
8.9760,-0.0250,1.4309,-0.1464,1.0695,4.8586,-1.7637,-1.8184,0.0989,-0.8817,49.27917668,-122.98109051,0.70999998,
9.0110,-0.0728,1.1330,-0.1467,1.0695,4.8586,-1.7637,-1.8184,0.0989,-0.8817,49.27917668,-122.98109051,0.70999998,
9.0300,-0.0728,1.1330,-0.1467,1.0695,4.8586,-1.7637,-1.7304,-2.2417,-0.9187,49.27917668,-122.98109051,0.70999998,
9.0310,-0.0728,1.1330,-0.1467,-0.8372,2.7717,-4.7887,-1.7304,-2.2417,-0.9187,49.27917668,-122.98109051,0.70999998,
9.0890,0.2135,0.6201,0.0601,-0.8372,2.7717,-4.7887,-1.7304,-2.2417,-0.9187,49.27917668,-122.98109051,0.70999998,
9.1070,0.2135,0.6201,0.0601,0.8281,0.4714,-3.7458,-1.7304,-2.2417,-0.9187,49.27917668,-122.98109051,0.70999998,
9.1090,0.2135,0.6201,0.0601,0.8281,0.4714,-3.7458,-0.7613,-1.8874,-0.8035,49.27917668,-122.98109051,0.70999998,
9.1460,0.2756,0.3493,0.0487,0.8281,0.4714,-3.7458,-0.7613,-1.8874,-0.8035,49.27917668,-122.98109051,0.70999998,
9.1640,0.2756,0.3493,0.0487,3.0526,-4.6387,-2.3785,-0.7613,-1.8874,-0.8035,49.27917668,-122.98109051,0.70999998,
9.1660,0.2756,0.3493,0.0487,3.0526,-4.6387,-2.3785,0.1898,-0.2290,-0.3921,49.27917668,-122.98109051,0.70999998,
9.2220,0.0607,0.5508,0.1879,3.0526,-4.6387,-2.3785,0.1898,-0.2290,-0.3921,49.27917668,-122.98109051,0.70999998,
9.2400,0.0607,0.5508,0.1879,2.9115,-6.0568,-2.3583,0.1898,-0.2290,-0.3921,49.27917668,-122.98109051,0.70999998,
9.2410,0.0607,0.5508,0.1879,2.9115,-6.0568,-2.3583,0.4044,-0.5957,-0.1041,49.27917668,-122.98109051,0.70999998,
9.2780,-0.2994,1.3436,0.6055,2.9115,-6.0568,-2.3583,0.4044,-0.5957,-0.1041,49.27917668,-122.98109051,0.70999998,
9.2970,-0.2994,1.3436,0.6055,2.9115,-6.0568,-2.3583,-0.2895,-1.0779,-0.4120,49.27917668,-122.98109051,0.70999998,
9.2990,-0.2994,1.3436,0.6055,-0.0361,-1.6182,0.2605,-0.2895,-1.0779,-0.4120,49.27917668,-122.98109051,0.70999998,
9.3540,0.1025,0.6799,0.6587,-0.0361,-1.6182,0.2605,-0.2895,-1.0779,-0.4120,49.27917668,-122.98109051,0.70999998,
9.3740,0.1025,0.6799,0.6587,-1.7554,3.8666,4.3406,-0.2895,-1.0779,-0.4120,49.27917668,-122.98109051,0.70999998,
9.3760,0.1025,0.6799,0.6587,-1.7554,3.8666,4.3406,0.5617,0.4953,-0.3511,49.27917668,-122.98109051,0.70999998,
9.4100,-0.2067,1.8726,0.0527,-1.7554,3.8666,4.3406,0.5617,0.4953,-0.3511,49.27917668,-122.98109051,0.70999998,
9.4310,-0.2067,1.8726,0.0527,1.9719,-3.9403,1.7184,0.5617,0.4953,-0.3511,49.27917668,-122.98109051,0.70999998,
9.4330,-0.2067,1.8726,0.0527,1.9719,-3.9403,1.7184,0.1816,-1.3458,0.1111,49.27917668,-122.98109051,0.70999998,
9.4890,0.7380,0.4262,-0.1281,1.9719,-3.9403,1.7184,0.1816,-1.3458,0.1111,49.27917668,-122.98109051,0.70999998,
9.5080,0.7380,0.4262,-0.1281,0.2492,8.9173,-4.5356,0.1816,-1.3458,0.1111,49.27917668,-122.98109051,0.70999998,
9.5090,0.7380,0.4262,-0.1281,0.2492,8.9173,-4.5356,0.7285,0.6599,-0.0188,49.27917668,-122.98109051,0.70999998,
9.5460,-0.0489,1.3728,-0.2759,0.2492,8.9173,-4.5356,0.7285,0.6599,-0.0188,49.27917668,-122.98109051,0.70999998,
9.5640,-0.0489,1.3728,-0.2759,6.5524,-5.3774,0.2417,0.7285,0.6599,-0.0188,49.27917668,-122.98109051,0.70999998,
9.5660,-0.0489,1.3728,-0.2759,6.5524,-5.3774,0.2417,1.4654,1.5212,0.2207,49.27917668,-122.98109051,0.70999998,
9.6210,-0.3206,0.7583,-0.1042,6.5524,-5.3774,0.2417,1.4654,1.5212,0.2207,49.27917668,-122.98109051,0.70999998,
9.6390,-0.3206,0.7583,-0.1042,-1.2123,2.8806,-2.8600,1.4654,1.5212,0.2207,49.27917262,-122.98110886,1.52999997,
9.6410,-0.3206,0.7583,-0.1042,-1.2123,2.8806,-2.8600,1.5148,0.1043,0.3127,49.27917262,-122.98110886,1.52999997,
9.6780,-0.0751,0.9701,0.0114,-1.2123,2.8806,-2.8600,1.5148,0.1043,0.3127,49.27917262,-122.98110886,1.52999997,
9.6970,-0.0751,0.9701,0.0114,-2.8595,-1.7099,-0.3514,1.5148,0.1043,0.3127,49.27917262,-122.98110886,1.52999997,
9.6980,-0.0751,0.9701,0.0114,-2.8595,-1.7099,-0.3514,1.1743,0.0227,0.3286,49.27917262,-122.98110886,1.52999997,
9.7490,0.0917,0.9685,0.0670,-2.8595,-1.7099,-0.3514,1.1743,0.0227,0.3286,49.27917262,-122.98110886,1.52999997,
9.7640,0.0917,0.9685,0.0670,0.0909,-0.4848,2.1966,1.1743,0.0227,0.3286,49.27917262,-122.98110886,1.52999997,
9.7650,0.0917,0.9685,0.0670,0.0909,-0.4848,2.1966,0.8280,1.2140,0.3471,49.27917262,-122.98110886,1.52999997,
9.8210,-0.0602,0.9744,-0.0982,0.0909,-0.4848,2.1966,0.8280,1.2140,0.3471,49.27917262,-122.98110886,1.52999997,
9.8390,-0.0602,0.9744,-0.0982,0.4166,-0.2579,1.5708,0.8280,1.2140,0.3471,49.27917262,-122.98110886,1.52999997,
9.8410,-0.0602,0.9744,-0.0982,0.4166,-0.2579,1.5708,0.5968,0.9817,0.3656,49.27917262,-122.98110886,1.52999997,
9.8780,-0.1287,0.9708,-0.1333,0.4166,-0.2579,1.5708,0.5968,0.9817,0.3656,49.27917262,-122.98110886,1.52999997,
9.8980,-0.1287,0.9708,-0.1333,-2.0984,-0.1686,0.7860,0.5968,0.9817,0.3656,49.27917262,-122.98110886,1.52999997,
9.8990,-0.1287,0.9708,-0.1333,-2.0984,-0.1686,0.7860,0.5038,0.4824,0.2921,49.27917262,-122.98110886,1.52999997,
9.9550,-0.0672,1.0805,0.0609,-2.0984,-0.1686,0.7860,0.5038,0.4824,0.2921,49.27917262,-122.98110886,1.52999997,
9.9730,-0.0672,1.0805,0.0609,-1.3961,0.2626,0.8810,0.5038,0.4824,0.2921,49.27917262,-122.98110886,1.52999997,
9.9750,-0.0672,1.0805,0.0609,-1.3961,0.2626,0.8810,0.3154,0.6466,0.0671,49.27917262,-122.98110886,1.52999997,
10.0100,-0.1774,1.2715,-0.0273,-1.3961,0.2626,0.8810,0.3154,0.6466,0.0671,49.27917262,-122.98110886,1.52999997,
10.0300,-0.1774,1.2715,-0.0273,-1.9232,1.0745,2.5790,0.3154,0.6466,0.0671,49.27917262,-122.98110886,1.52999997,
10.0310,-0.1774,1.2715,-0.0273,-1.9232,1.0745,2.5790,-0.9087,1.1002,-0.0634,49.27917262,-122.98110886,1.52999997,
10.0880,-0.0550,1.3768,-0.2247,-1.9232,1.0745,2.5790,-0.9087,1.1002,-0.0634,49.27917262,-122.98110886,1.52999997,
10.1060,-0.0550,1.3768,-0.2247,-2.2573,3.5580,-0.9877,-0.9087,1.1002,-0.0634,49.27917262,-122.98110886,1.52999997,
10.1090,-0.0550,1.3768,-0.2247,-2.2573,3.5580,-0.9877,-2.2783,-0.4693,-0.4928,49.27917262,-122.98110886,1.52999997,
10.1440,0.0468,1.6016,-0.0631,-2.2573,3.5580,-0.9877,-2.2783,-0.4693,-0.4928,49.27917262,-122.98110886,1.52999997,
10.1630,0.0468,1.6016,-0.0631,0.7825,4.2559,-3.4047,-2.2783,-0.4693,-0.4928,49.27917262,-122.98110886,1.52999997,
10.1640,0.0468,1.6016,-0.0631,0.7825,4.2559,-3.4047,-2.0069,-0.0943,-0.9410,49.27917262,-122.98110886,1.52999997,
10.2200,-0.2169,1.1073,-0.2317,0.7825,4.2559,-3.4047,-2.0069,-0.0943,-0.9410,49.27917262,-122.98110886,1.52999997,
10.2400,-0.2169,1.1073,-0.2317,-0.6743,4.1252,-3.2285,-2.0069,-0.0943,-0.9410,49.27917262,-122.98110886,1.52999997,
10.2410,-0.2169,1.1073,-0.2317,-0.6743,4.1252,-3.2285,-1.4334,-2.0565,-1.1044,49.27917262,-122.98110886,1.52999997,
10.2790,0.1429,0.7655,-0.0731,-0.6743,4.1252,-3.2285,-1.4334,-2.0565,-1.1044,49.27917262,-122.98110886,1.52999997,
10.2960,0.1429,0.7655,-0.0731,-0.1167,0.9020,-5.3129,-1.4334,-2.0565,-1.1044,49.27917262,-122.98110886,1.52999997,
10.2970,0.1429,0.7655,-0.0731,-0.1167,0.9020,-5.3129,-1.1154,-2.8416,-0.7747,49.27917262,-122.98110886,1.52999997,
10.3540,0.3333,0.4302,0.1304,-0.1167,0.9020,-5.3129,-1.1154,-2.8416,-0.7747,49.27917262,-122.98110886,1.52999997,
10.3730,0.3333,0.4302,0.1304,-0.1167,0.9020,-5.3129,0.0819,-0.8189,-0.5232,49.27917262,-122.98110886,1.52999997,
10.3750,0.3333,0.4302,0.1304,2.7623,-3.1781,-2.9403,0.0819,-0.8189,-0.5232,49.27917262,-122.98110886,1.52999997,
10.4100,0.1141,0.6221,0.1634,2.7623,-3.1781,-2.9403,0.0819,-0.8189,-0.5232,49.27917262,-122.98110886,1.52999997,
10.4300,0.1141,0.6221,0.1634,3.7650,-5.3709,-1.2421,0.0819,-0.8189,-0.5232,49.27917262,-122.98110886,1.52999997,
10.4310,0.1141,0.6221,0.1634,3.7650,-5.3709,-1.2421,0.1856,-0.1906,0.0132,49.27917262,-122.98110886,1.52999997,
10.4880,-0.1734,1.0719,0.4779,3.7650,-5.3709,-1.2421,0.1856,-0.1906,0.0132,49.27917262,-122.98110886,1.52999997,
10.5060,-0.1734,1.0719,0.4779,0.6466,-1.5013,-0.6032,0.1856,-0.1906,0.0132,49.27917262,-122.98110886,1.52999997,
10.5080,-0.1734,1.0719,0.4779,0.6466,-1.5013,-0.6032,-0.0448,-0.4802,-0.3101,49.27917262,-122.98110886,1.52999997,
10.5450,-0.1273,1.1587,0.6447,0.6466,-1.5013,-0.6032,-0.0448,-0.4802,-0.3101,49.27917262,-122.98110886,1.52999997,
10.5620,-0.1273,1.1587,0.6447,0.6466,-1.5013,-0.6032,-0.3900,0.2398,-0.5865,49.27917262,-122.98110886,1.52999997,
10.5640,-0.1273,1.1587,0.6447,-0.5901,1.2866,2.1480,-0.3900,0.2398,-0.5865,49.27917262,-122.98110886,1.52999997,
10.6190,-0.1776,0.5777,0.4489,-0.5901,1.2866,2.1480,-0.3900,0.2398,-0.5865,49.27917262,-122.98110886,1.52999997,
10.6380,-0.1776,0.5777,0.4489,-0.5901,1.2866,2.1480,0.8785,-0.4692,-0.1476,49.27916859,-122.98112481,0.75999999,
10.6380,-0.1776,0.5777,0.4489,-0.0539,0.5603,3.9104,0.8785,-0.4692,-0.1476,49.27916859,-122.98112481,0.75999999,
10.6760,-0.1438,1.7554,0.0346,-0.0539,0.5603,3.9104,0.8785,-0.4692,-0.1476,49.27916859,-122.98112481,0.75999999,
10.6950,-0.1438,1.7554,0.0346,-1.5773,-1.0978,-0.7247,0.8785,-0.4692,-0.1476,49.27916859,-122.98112481,0.75999999,
10.6960,-0.1438,1.7554,0.0346,-1.5773,-1.0978,-0.7247,-0.2551,-1.4678,0.5511,49.27916859,-122.98112481,0.75999999,
10.7460,0.9222,0.4038,0.1364,-1.5773,-1.0978,-0.7247,-0.2551,-1.4678,0.5511,49.27916859,-122.98112481,0.75999999,
10.7610,0.9222,0.4038,0.1364,-1.5773,-1.0978,-0.7247,1.4440,2.2558,-0.3519,49.27916859,-122.98112481,0.75999999,
10.7620,0.9222,0.4038,0.1364,5.4688,3.2524,-1.7593,1.4440,2.2558,-0.3519,49.27916859,-122.98112481,0.75999999,
10.8180,-0.3472,1.3369,-0.3827,5.4688,3.2524,-1.7593,1.4440,2.2558,-0.3519,49.27916859,-122.98112481,0.75999999,
10.8380,-0.3472,1.3369,-0.3827,2.9255,-1.4336,-1.8766,1.4440,2.2558,-0.3519,49.27916859,-122.98112481,0.75999999,
10.8390,-0.3472,1.3369,-0.3827,2.9255,-1.4336,-1.8766,0.8994,0.9718,0.4005,49.27916859,-122.98112481,0.75999999,
10.8770,-0.1708,0.8857,-0.0913,2.9255,-1.4336,-1.8766,0.8994,0.9718,0.4005,49.27916859,-122.98112481,0.75999999,
10.8950,-0.1708,0.8857,-0.0913,2.9255,-1.4336,-1.8766,1.5070,0.5255,0.2083,49.27916859,-122.98112481,0.75999999,
10.8960,-0.1708,0.8857,-0.0913,-0.6949,0.7127,-1.2290,1.5070,0.5255,0.2083,49.27916859,-122.98112481,0.75999999,
10.9530,-0.1071,0.9418,-0.0115,-0.6949,0.7127,-1.2290,1.5070,0.5255,0.2083,49.27916859,-122.98112481,0.75999999,
10.9720,-0.1071,0.9418,-0.0115,-1.6611,-0.5680,-0.6794,1.5070,0.5255,0.2083,49.27916859,-122.98112481,0.75999999,
10.9730,-0.1071,0.9418,-0.0115,-1.6611,-0.5680,-0.6794,1.2221,0.2031,0.3471,49.27916859,-122.98112481,0.75999999,
11.0110,-0.0338,0.9508,0.0596,-1.6611,-0.5680,-0.6794,1.2221,0.2031,0.3471,49.27916859,-122.98112481,0.75999999,
11.0290,-0.0338,0.9508,0.0596,-0.5412,-0.5761,1.7548,1.2221,0.2031,0.3471,49.27916859,-122.98112481,0.75999999,
11.0300,-0.0338,0.9508,0.0596,-0.5412,-0.5761,1.7548,0.9272,0.8589,0.3773,49.27916859,-122.98112481,0.75999999,
11.0880,-0.0502,0.9607,-0.0017,-0.5412,-0.5761,1.7548,0.9272,0.8589,0.3773,49.27916859,-122.98112481,0.75999999,
11.1060,-0.0502,0.9607,-0.0017,-0.2581,-0.1721,2.2399,0.9272,0.8589,0.3773,49.27916859,-122.98112481,0.75999999,
11.1070,-0.0502,0.9607,-0.0017,-0.2581,-0.1721,2.2399,0.6549,1.0667,0.4307,49.27916859,-122.98112481,0.75999999,
11.1440,-0.2407,0.8359,-0.1411,-0.2581,-0.1721,2.2399,0.6549,1.0667,0.4307,49.27916859,-122.98112481,0.75999999,
11.1620,-0.2407,0.8359,-0.1411,-0.2581,-0.1721,2.2399,0.6833,0.5436,0.5441,49.27916859,-122.98112481,0.75999999,
11.1640,-0.2407,0.8359,-0.1411,-1.6983,-0.5153,1.6030,0.6833,0.5436,0.5441,49.27916859,-122.98112481,0.75999999,
11.2190,-0.0884,1.0628,-0.0597,-1.6983,-0.5153,1.6030,0.6833,0.5436,0.5441,49.27916859,-122.98112481,0.75999999,
11.2370,-0.0884,1.0628,-0.0597,-2.9128,-0.9055,1.0336,0.6833,0.5436,0.5441,49.27916859,-122.98112481,0.75999999,
11.2390,-0.0884,1.0628,-0.0597,-2.9128,-0.9055,1.0336,0.5818,0.3972,0.3247,49.27916859,-122.98112481,0.75999999,
11.2760,-0.2058,1.3963,-0.0856,-2.9128,-0.9055,1.0336,0.5818,0.3972,0.3247,49.27916859,-122.98112481,0.75999999,
11.2950,-0.2058,1.3963,-0.0856,-2.9128,-0.9055,1.0336,-0.3902,0.5772,-0.1591,49.27916859,-122.98112481,0.75999999,
11.2960,-0.2058,1.3963,-0.0856,-1.3659,1.4280,1.5659,-0.3902,0.5772,-0.1591,49.27916859,-122.98112481,0.75999999,
11.3530,-0.1317,1.5210,-0.1402,-1.3659,1.4280,1.5659,-0.3902,0.5772,-0.1591,49.27916859,-122.98112481,0.75999999,
11.3740,-0.1317,1.5210,-0.1402,-2.8769,5.4970,-0.4521,-0.3902,0.5772,-0.1591,49.27916859,-122.98112481,0.75999999,
11.3750,-0.1317,1.5210,-0.1402,-2.8769,5.4970,-0.4521,-2.3005,-0.5414,-0.7715,49.27916859,-122.98112481,0.75999999,
11.4080,0.4071,1.4882,-0.0150,-2.8769,5.4970,-0.4521,-2.3005,-0.5414,-0.7715,49.27916859,-122.98112481,0.75999999,
11.4290,0.4071,1.4882,-0.0150,0.5867,3.7406,-1.9810,-2.3005,-0.5414,-0.7715,49.27916859,-122.98112481,0.75999999,
11.4300,0.4071,1.4882,-0.0150,0.5867,3.7406,-1.9810,-2.3307,-0.4173,-0.6823,49.27916859,-122.98112481,0.75999999,
11.4860,-0.1256,1.1166,-0.0746,0.5867,3.7406,-1.9810,-2.3307,-0.4173,-0.6823,49.27916859,-122.98112481,0.75999999,
11.5040,-0.1256,1.1166,-0.0746,4.0323,3.9600,-1.8251,-2.3307,-0.4173,-0.6823,49.27916859,-122.98112481,0.75999999,
11.5050,-0.1256,1.1166,-0.0746,4.0323,3.9600,-1.8251,-1.7343,-0.7243,-0.7089,49.27916859,-122.98112481,0.75999999,
11.5450,0.1150,0.7603,-0.0780,4.0323,3.9600,-1.8251,-1.7343,-0.7243,-0.7089,49.27916859,-122.98112481,0.75999999,
11.5620,0.1150,0.7603,-0.0780,-0.4865,0.8824,-4.1704,-1.7343,-0.7243,-0.7089,49.27916859,-122.98112481,0.75999999,
11.5640,0.1150,0.7603,-0.0780,-0.4865,0.8824,-4.1704,-1.5807,-1.3172,-0.3320,49.27916859,-122.98112481,0.75999999,
11.6190,0.2214,0.3585,0.1562,-0.4865,0.8824,-4.1704,-1.5807,-1.3172,-0.3320,49.27916859,-122.98112481,0.75999999,
11.6380,0.2214,0.3585,0.1562,-0.4865,0.8824,-4.1704,-0.4019,-0.3713,-0.1587,49.27916530,-122.98113904,0.81999999,
11.6390,0.2214,0.3585,0.1562,2.0945,-3.4052,-3.2421,-0.4019,-0.3713,-0.1587,49.27916530,-122.98113904,0.81999999,
11.6760,0.1068,0.3804,0.0983,2.0945,-3.4052,-3.2421,-0.4019,-0.3713,-0.1587,49.27916530,-122.98113904,0.81999999,
11.6950,0.1068,0.3804,0.0983,2.9331,-6.2608,-1.1505,-0.4019,-0.3713,-0.1587,49.27916530,-122.98113904,0.81999999,
11.6970,0.1068,0.3804,0.0983,2.9331,-6.2608,-1.1505,0.6832,0.3592,-0.1118,49.27916530,-122.98113904,0.81999999,
11.7470,-0.3654,1.2236,0.6375,2.9331,-6.2608,-1.1505,0.6832,0.3592,-0.1118,49.27916530,-122.98113904,0.81999999,
11.7640,-0.3654,1.2236,0.6375,0.3276,-4.3800,-1.2213,0.6832,0.3592,-0.1118,49.27916530,-122.98113904,0.81999999,
11.7650,-0.3654,1.2236,0.6375,0.3276,-4.3800,-1.2213,0.0693,-0.8556,0.0373,49.27916530,-122.98113904,0.81999999,
11.8200,0.0795,1.0797,0.7453,0.3276,-4.3800,-1.2213,0.0693,-0.8556,0.0373,49.27916530,-122.98113904,0.81999999,
11.8400,0.0795,1.0797,0.7453,-2.7727,3.9361,4.8082,0.0693,-0.8556,0.0373,49.27916530,-122.98113904,0.81999999,
11.8420,0.0795,1.0797,0.7453,-2.7727,3.9361,4.8082,-0.1143,0.1497,-0.5211,49.27916530,-122.98113904,0.81999999,
11.8770,0.0490,1.4050,0.2451,-2.7727,3.9361,4.8082,-0.1143,0.1497,-0.5211,49.27916530,-122.98113904,0.81999999,
11.8950,0.0490,1.4050,0.2451,-2.7727,3.9361,4.8082,-0.1549,-0.1040,-0.1020,49.27916530,-122.98113904,0.81999999,
11.8960,0.0490,1.4050,0.2451,3.3460,-0.6254,3.5197,-0.1549,-0.1040,-0.1020,49.27916530,-122.98113904,0.81999999,
11.9530,0.4470,0.6190,0.0586,3.3460,-0.6254,3.5197,-0.1549,-0.1040,-0.1020,49.27916530,-122.98113904,0.81999999,
11.9730,0.4470,0.6190,0.0586,3.3460,-0.6254,3.5197,0.8867,1.4734,0.1615,49.27916530,-122.98113904,0.81999999,
11.9740,0.4470,0.6190,0.0586,0.5817,4.8794,-1.8987,0.8867,1.4734,0.1615,49.27916530,-122.98113904,0.81999999,
12.0090,-0.4423,1.2766,-0.4228,0.5817,4.8794,-1.8987,0.8867,1.4734,0.1615,49.27916530,-122.98113904,0.81999999,
12.0280,-0.4423,1.2766,-0.4228,0.5817,4.8794,-1.8987,1.3073,0.4576,0.4244,49.27916530,-122.98113904,0.81999999,
12.0290,-0.4423,1.2766,-0.4228,5.0771,-2.9268,-1.5347,1.3073,0.4576,0.4244,49.27916530,-122.98113904,0.81999999,
12.0880,0.0763,0.8442,0.0578,5.0771,-2.9268,-1.5347,1.3073,0.4576,0.4244,49.27916530,-122.98113904,0.81999999,
12.1050,0.0763,0.8442,0.0578,-3.3608,1.8642,-3.3191,1.3073,0.4576,0.4244,49.27916530,-122.98113904,0.81999999,
12.1070,0.0763,0.8442,0.0578,-3.3608,1.8642,-3.3191,1.6630,-0.0482,0.4807,49.27916530,-122.98113904,0.81999999,
12.1430,-0.1906,0.9189,-0.0877,-3.3608,1.8642,-3.3191,1.6630,-0.0482,0.4807,49.27916530,-122.98113904,0.81999999,
12.1610,-0.1906,0.9189,-0.0877,-3.3608,1.8642,-3.3191,1.5728,0.1204,0.5268,49.27916530,-122.98113904,0.81999999,
12.1630,-0.1906,0.9189,-0.0877,0.0188,-1.4025,0.9167,1.5728,0.1204,0.5268,49.27916530,-122.98113904,0.81999999,
12.2190,-0.0949,0.9615,0.0838,0.0188,-1.4025,0.9167,1.5728,0.1204,0.5268,49.27916530,-122.98113904,0.81999999,
12.2380,-0.0949,0.9615,0.0838,0.0188,-1.4025,0.9167,1.1153,0.3499,0.5132,49.27916530,-122.98113904,0.81999999,
12.2390,-0.0949,0.9615,0.0838,-1.8821,-0.6724,1.0064,1.1153,0.3499,0.5132,49.27916530,-122.98113904,0.81999999,
12.2770,0.0263,0.9479,-0.0411,-1.8821,-0.6724,1.0064,1.1153,0.3499,0.5132,49.27916530,-122.98113904,0.81999999,
12.2950,0.0263,0.9479,-0.0411,-1.8821,-0.6724,1.0064,0.6453,0.3333,0.5605,49.27916530,-122.98113904,0.81999999,
12.2960,0.0263,0.9479,-0.0411,-1.0601,-0.1413,2.4146,0.6453,0.3333,0.5605,49.27916530,-122.98113904,0.81999999,
12.3530,-0.0330,0.9910,-0.0866,-1.0601,-0.1413,2.4146,0.6453,0.3333,0.5605,49.27916530,-122.98113904,0.81999999,
12.3710,-0.0330,0.9910,-0.0866,-0.5537,-0.1979,1.7131,0.6453,0.3333,0.5605,49.27916530,-122.98113904,0.81999999,
12.3720,-0.0330,0.9910,-0.0866,-0.5537,-0.1979,1.7131,0.5380,0.7643,0.4921,49.27916530,-122.98113904,0.81999999,
12.4080,-0.0866,1.0650,-0.0297,-0.5537,-0.1979,1.7131,0.5380,0.7643,0.4921,49.27916530,-122.98113904,0.81999999,
12.4270,-0.0866,1.0650,-0.0297,-1.9919,0.1115,1.3322,0.5380,0.7643,0.4921,49.27916530,-122.98113904,0.81999999,
12.4280,-0.0866,1.0650,-0.0297,-1.9919,0.1115,1.3322,0.4509,0.4316,0.3032,49.27916530,-122.98113904,0.81999999,
12.4840,-0.1709,1.3897,0.0423,-1.9919,0.1115,1.3322,0.4509,0.4316,0.3032,49.27916530,-122.98113904,0.81999999,
12.5040,-0.1709,1.3897,0.0423,-1.8229,1.2811,2.0723,0.4509,0.4316,0.3032,49.27916530,-122.98113904,0.81999999,
12.5050,-0.1709,1.3897,0.0423,-1.8229,1.2811,2.0723,-0.4670,0.6272,-0.2219,49.27916530,-122.98113904,0.81999999,
12.5420,-0.1275,1.4012,-0.2253,-1.8229,1.2811,2.0723,-0.4670,0.6272,-0.2219,49.27916530,-122.98113904,0.81999999,
12.5610,-0.1275,1.4012,-0.2253,-2.9422,5.0353,-0.1700,-0.4670,0.6272,-0.2219,49.27916530,-122.98113904,0.81999999,
12.5620,-0.1275,1.4012,-0.2253,-2.9422,5.0353,-0.1700,-2.4736,-0.5165,-0.6117,49.27916530,-122.98113904,0.81999999,
12.6180,0.2303,1.5392,-0.0372,-2.9422,5.0353,-0.1700,-2.4736,-0.5165,-0.6117,49.27916530,-122.98113904,0.81999999,
12.6360,0.2303,1.5392,-0.0372,-2.9422,5.0353,-0.1700,-2.0528,0.2138,-0.8392,49.27916277,-122.98115695,1.02999997,
12.6380,0.2303,1.5392,-0.0372,-0.0492,3.5734,-2.4501,-2.0528,0.2138,-0.8392,49.27916277,-122.98115695,1.02999997,
12.6750,-0.1660,1.1333,-0.1804,-0.0492,3.5734,-2.4501,-2.0528,0.2138,-0.8392,49.27916277,-122.98115695,1.02999997,
12.6940,-0.1660,1.1333,-0.1804,-0.0492,3.5734,-2.4501,-1.7278,-1.5174,-0.9579,49.27916277,-122.98115695,1.02999997,
12.6950,-0.1660,1.1333,-0.1804,1.7478,4.0615,-3.0069,-1.7278,-1.5174,-0.9579,49.27916277,-122.98115695,1.02999997,
12.7470,0.0483,0.8026,-0.1089,1.7478,4.0615,-3.0069,-1.7278,-1.5174,-0.9579,49.27916277,-122.98115695,1.02999997,
12.7600,0.0483,0.8026,-0.1089,-0.7196,1.0365,-4.5607,-1.7278,-1.5174,-0.9579,49.27916277,-122.98115695,1.02999997,
12.7620,0.0483,0.8026,-0.1089,-0.7196,1.0365,-4.5607,-1.3739,-2.4122,-0.6584,49.27916277,-122.98115695,1.02999997,
12.8180,0.3271,0.4086,0.1130,-0.7196,1.0365,-4.5607,-1.3739,-2.4122,-0.6584,49.27916277,-122.98115695,1.02999997,
12.8370,0.3271,0.4086,0.1130,1.5721,-2.8523,-3.4317,-1.3739,-2.4122,-0.6584,49.27916277,-122.98115695,1.02999997,
12.8390,0.3271,0.4086,0.1130,1.5721,-2.8523,-3.4317,-0.2583,-0.8673,-0.4584,49.27916277,-122.98115695,1.02999997,
12.8750,0.2208,0.4369,0.0845,1.5721,-2.8523,-3.4317,-0.2583,-0.8673,-0.4584,49.27916277,-122.98115695,1.02999997,
12.8940,0.2208,0.4369,0.0845,4.2675,-5.9569,-1.3847,-0.2583,-0.8673,-0.4584,49.27916277,-122.98115695,1.02999997,
12.8950,0.2208,0.4369,0.0845,4.2675,-5.9569,-1.3847,0.6703,0.3353,-0.4664,49.27916277,-122.98115695,1.02999997,
12.9510,-0.3678,1.2003,0.4191,4.2675,-5.9569,-1.3847,0.6703,0.3353,-0.4664,49.27916277,-122.98115695,1.02999997,
12.9700,-0.3678,1.2003,0.4191,1.4553,-3.8556,-1.7385,0.6703,0.3353,-0.4664,49.27916277,-122.98115695,1.02999997,
12.9710,-0.3678,1.2003,0.4191,1.4553,-3.8556,-1.7385,-0.0282,-1.1957,-0.2409,49.27916277,-122.98115695,1.02999997,
13.0080,-0.0638,1.1021,0.8411,1.4553,-3.8556,-1.7385,-0.0282,-1.1957,-0.2409,49.27916277,-122.98115695,1.02999997,
13.0270,-0.0638,1.1021,0.8411,-3.2152,3.7989,2.9218,-0.0282,-1.1957,-0.2409,49.27916277,-122.98115695,1.02999997,
13.0280,-0.0638,1.1021,0.8411,-3.2152,3.7989,2.9218,-0.3300,-0.0433,-0.4027,49.27916277,-122.98115695,1.02999997,
13.0880,-0.1220,1.0732,0.1356,-3.2152,3.7989,2.9218,-0.3300,-0.0433,-0.4027,49.27916277,-122.98115695,1.02999997,
13.1040,-0.1220,1.0732,0.1356,2.1147,-0.9978,4.6886,-0.3300,-0.0433,-0.4027,49.27916277,-122.98115695,1.02999997,
13.1050,-0.1220,1.0732,0.1356,2.1147,-0.9978,4.6886,0.1934,-0.4266,-0.3111,49.27916277,-122.98115695,1.02999997,
13.1420,0.5397,0.8381,0.1037,2.1147,-0.9978,4.6886,0.1934,-0.4266,-0.3111,49.27916277,-122.98115695,1.02999997,
13.1600,0.5397,0.8381,0.1037,-2.6600,5.4638,-2.0602,0.1934,-0.4266,-0.3111,49.27916277,-122.98115695,1.02999997,
13.1620,0.5397,0.8381,0.1037,-2.6600,5.4638,-2.0602,0.4746,0.1583,0.3848,49.27916277,-122.98115695,1.02999997,
13.2180,-0.1157,1.2337,-0.3067,-2.6600,5.4638,-2.0602,0.4746,0.1583,0.3848,49.27916277,-122.98115695,1.02999997,
13.2370,-0.1157,1.2337,-0.3067,-2.6600,5.4638,-2.0602,1.7084,1.4863,0.1816,49.27916277,-122.98115695,1.02999997,
13.2380,-0.1157,1.2337,-0.3067,9.9285,-5.4359,0.9432,1.7084,1.4863,0.1816,49.27916277,-122.98115695,1.02999997,
13.2750,-0.0158,0.8861,-0.0122,9.9285,-5.4359,0.9432,1.7084,1.4863,0.1816,49.27916277,-122.98115695,1.02999997,
13.2940,-0.0158,0.8861,-0.0122,9.9285,-5.4359,0.9432,1.4656,0.4970,0.3858,49.27916277,-122.98115695,1.02999997,
13.2950,-0.0158,0.8861,-0.0122,-2.6701,3.3901,-5.5259,1.4656,0.4970,0.3858,49.27916277,-122.98115695,1.02999997,
13.3510,-0.1906,0.9451,-0.1476,-2.6701,3.3901,-5.5259,1.4656,0.4970,0.3858,49.27916277,-122.98115695,1.02999997,
13.3700,-0.1906,0.9451,-0.1476,-0.4125,-1.4690,0.4426,1.4656,0.4970,0.3858,49.27916277,-122.98115695,1.02999997,
13.3710,-0.1906,0.9451,-0.1476,-0.4125,-1.4690,0.4426,1.4909,0.1335,0.3750,49.27916277,-122.98115695,1.02999997,
13.4080,-0.0078,0.9547,0.0811,-0.4125,-1.4690,0.4426,1.4909,0.1335,0.3750,49.27916277,-122.98115695,1.02999997,
13.4270,-0.0078,0.9547,0.0811,-1.1810,-0.7482,0.3651,1.4909,0.1335,0.3750,49.27916277,-122.98115695,1.02999997,
13.4290,-0.0078,0.9547,0.0811,-1.1810,-0.7482,0.3651,1.1169,0.7791,0.4767,49.27916277,-122.98115695,1.02999997,
13.4840,-0.0924,0.9623,-0.0376,-1.1810,-0.7482,0.3651,1.1169,0.7791,0.4767,49.27916277,-122.98115695,1.02999997,
13.5030,-0.0924,0.9623,-0.0376,-0.4976,-0.1508,2.5167,1.1169,0.7791,0.4767,49.27916277,-122.98115695,1.02999997,
13.5040,-0.0924,0.9623,-0.0376,-0.4976,-0.1508,2.5167,0.6680,1.0219,0.4835,49.27916277,-122.98115695,1.02999997,
13.5420,-0.1467,0.9565,-0.0099,-0.4976,-0.1508,2.5167,0.6680,1.0219,0.4835,49.27916277,-122.98115695,1.02999997,
13.5600,-0.1467,0.9565,-0.0099,-1.9160,-0.2518,1.8367,0.6680,1.0219,0.4835,49.27916277,-122.98115695,1.02999997,
13.5610,-0.1467,0.9565,-0.0099,-1.9160,-0.2518,1.8367,0.6018,0.7030,0.5228,49.27916277,-122.98115695,1.02999997,
13.6160,-0.2000,1.0056,-0.1212,-1.9160,-0.2518,1.8367,0.6018,0.7030,0.5228,49.27916277,-122.98115695,1.02999997,
13.6360,-0.2000,1.0056,-0.1212,-2.9832,-0.3834,1.8669,0.6018,0.7030,0.5228,49.27915967,-122.98117485,1.13000000,
13.6360,-0.2000,1.0056,-0.1212,-2.9832,-0.3834,1.8669,0.6371,0.2174,0.5198,49.27915967,-122.98117485,1.13000000,
13.6730,-0.1534,1.3560,-0.0443,-2.9832,-0.3834,1.8669,0.6371,0.2174,0.5198,49.27915967,-122.98117485,1.13000000,
13.6920,-0.1534,1.3560,-0.0443,-2.5742,1.5994,1.5669,0.6371,0.2174,0.5198,49.27915967,-122.98117485,1.13000000,
13.6930,-0.1534,1.3560,-0.0443,-2.5742,1.5994,1.5669,0.0781,0.3321,0.0860,49.27915967,-122.98117485,1.13000000,
13.7460,-0.0568,1.5127,-0.1613,-2.5742,1.5994,1.5669,0.0781,0.3321,0.0860,49.27915967,-122.98117485,1.13000000,
13.7590,-0.0568,1.5127,-0.1613,-2.1604,4.8539,0.7783,0.0781,0.3321,0.0860,49.27915967,-122.98117485,1.13000000,
13.7590,-0.0568,1.5127,-0.1613,-2.1604,4.8539,0.7783,-1.9360,0.0050,-0.5521,49.27915967,-122.98117485,1.13000000,
13.8170,0.3019,1.4676,-0.0474,-2.1604,4.8539,0.7783,-1.9360,0.0050,-0.5521,49.27915967,-122.98117485,1.13000000,
13.8370,0.3019,1.4676,-0.0474,-0.1846,3.3978,-2.0618,-1.9360,0.0050,-0.5521,49.27915967,-122.98117485,1.13000000,
13.8380,0.3019,1.4676,-0.0474,-0.1846,3.3978,-2.0618,-2.4673,0.0656,-0.7905,49.27915967,-122.98117485,1.13000000,
13.8740,0.0275,1.1254,-0.1711,-0.1846,3.3978,-2.0618,-2.4673,0.0656,-0.7905,49.27915967,-122.98117485,1.13000000,
13.8930,0.0275,1.1254,-0.1711,3.5052,4.5690,-1.7888,-2.4673,0.0656,-0.7905,49.27915967,-122.98117485,1.13000000,
13.8950,0.0275,1.1254,-0.1711,3.5052,4.5690,-1.7888,-1.8172,-0.3931,-0.9031,49.27915967,-122.98117485,1.13000000,
13.9510,0.0446,0.8567,-0.1284,3.5052,4.5690,-1.7888,-1.8172,-0.3931,-0.9031,49.27915967,-122.98117485,1.13000000,
13.9690,0.0446,0.8567,-0.1284,0.0726,0.4225,-4.5718,-1.8172,-0.3931,-0.9031,49.27915967,-122.98117485,1.13000000,
13.9700,0.0446,0.8567,-0.1284,0.0726,0.4225,-4.5718,-1.6791,-1.8639,-0.7363,49.27915967,-122.98117485,1.13000000,
14.0070,0.1913,0.5007,0.0881,0.0726,0.4225,-4.5718,-1.6791,-1.8639,-0.7363,49.27915967,-122.98117485,1.13000000,
14.0260,0.1913,0.5007,0.0881,1.1462,-2.0916,-3.8906,-1.6791,-1.8639,-0.7363,49.27915967,-122.98117485,1.13000000,
14.0280,0.1913,0.5007,0.0881,1.1462,-2.0916,-3.8906,-0.8168,-1.1898,-0.5020,49.27915967,-122.98117485,1.13000000,
14.0870,0.3037,0.4565,0.1013,1.1462,-2.0916,-3.8906,-0.8168,-1.1898,-0.5020,49.27915967,-122.98117485,1.13000000,
14.1020,0.3037,0.4565,0.1013,1.1462,-2.0916,-3.8906,0.4278,0.3490,-0.5951,49.27915967,-122.98117485,1.13000000,
14.1030,0.3037,0.4565,0.1013,3.7785,-5.0621,-1.4344,0.4278,0.3490,-0.5951,49.27915967,-122.98117485,1.13000000,
14.1400,-0.2667,0.8466,0.3663,3.7785,-5.0621,-1.4344,0.4278,0.3490,-0.5951,49.27915967,-122.98117485,1.13000000,
14.1590,-0.2667,0.8466,0.3663,2.7409,-4.4429,-2.1297,0.4278,0.3490,-0.5951,49.27915967,-122.98117485,1.13000000,
14.1600,-0.2667,0.8466,0.3663,2.7409,-4.4429,-2.1297,0.1322,-0.7980,-0.2729,49.27915967,-122.98117485,1.13000000,
14.2170,-0.3684,1.3033,0.8632,2.7409,-4.4429,-2.1297,0.1322,-0.7980,-0.2729,49.27915967,-122.98117485,1.13000000,
14.2360,-0.3684,1.3033,0.8632,-2.9959,0.5913,3.2245,0.1322,-0.7980,-0.2729,49.27915967,-122.98117485,1.13000000,
14.2370,-0.3684,1.3033,0.8632,-2.9959,0.5913,3.2245,0.0144,-0.2550,-0.4020,49.27915967,-122.98117485,1.13000000,
14.2740,0.0563,0.7496,0.4944,-2.9959,0.5913,3.2245,0.0144,-0.2550,-0.4020,49.27915967,-122.98117485,1.13000000,
14.2930,0.0563,0.7496,0.4944,-2.9959,0.5913,3.2245,0.6633,-0.2986,-0.1402,49.27915967,-122.98117485,1.13000000,
14.2940,0.0563,0.7496,0.4944,-0.5495,2.3986,5.1613,0.6633,-0.2986,-0.1402,49.27915967,-122.98117485,1.13000000,
14.3500,0.3540,1.4003,-0.0814,-0.5495,2.3986,5.1613,0.6633,-0.2986,-0.1402,49.27915967,-122.98117485,1.13000000,
14.3690,0.3540,1.4003,-0.0814,0.5905,1.1937,-1.3102,0.6633,-0.2986,-0.1402,49.27915967,-122.98117485,1.13000000,
14.3700,0.3540,1.4003,-0.0814,0.5905,1.1937,-1.3102,-0.1291,-0.0423,0.3893,49.27915967,-122.98117485,1.13000000,
14.4070,0.0935,0.8375,-0.1630,0.5905,1.1937,-1.3102,-0.1291,-0.0423,0.3893,49.27915967,-122.98117485,1.13000000,
14.4270,0.0935,0.8375,-0.1630,8.4932,-1.3757,0.5952,-0.1291,-0.0423,0.3893,49.27915967,-122.98117485,1.13000000,
14.4280,0.0935,0.8375,-0.1630,8.4932,-1.3757,0.5952,1.6705,1.8533,-0.0561,49.27915967,-122.98117485,1.13000000,
14.4820,-0.1098,1.0332,-0.1222,8.4932,-1.3757,0.5952,1.6705,1.8533,-0.0561,49.27915967,-122.98117485,1.13000000,
14.5020,-0.1098,1.0332,-0.1222,8.4932,-1.3757,0.5952,1.2420,0.6496,0.4865,49.27915967,-122.98117485,1.13000000,
14.5030,-0.1098,1.0332,-0.1222,-3.1280,2.1016,-4.5441,1.2420,0.6496,0.4865,49.27915967,-122.98117485,1.13000000,
14.5400,-0.2589,0.9294,-0.1794,-3.1280,2.1016,-4.5441,1.2420,0.6496,0.4865,49.27915967,-122.98117485,1.13000000,
14.5590,-0.2589,0.9294,-0.1794,0.3383,-1.6533,0.7985,1.2420,0.6496,0.4865,49.27915967,-122.98117485,1.13000000,
14.5600,-0.2589,0.9294,-0.1794,0.3383,-1.6533,0.7985,1.7028,0.0406,0.3938,49.27915967,-122.98117485,1.13000000,
14.6170,-0.0069,0.9145,0.0717,0.3383,-1.6533,0.7985,1.7028,0.0406,0.3938,49.27915967,-122.98117485,1.13000000,
14.6350,-0.0069,0.9145,0.0717,0.3383,-1.6533,0.7985,1.2600,0.3642,0.3809,49.27915976,-122.98119479,1.16999996,
14.6360,-0.0069,0.9145,0.0717,-1.8566,-0.4325,-0.1566,1.2600,0.3642,0.3809,49.27915976,-122.98119479,1.16999996,
14.6730,0.0093,0.9865,0.0079,-1.8566,-0.4325,-0.1566,1.2600,0.3642,0.3809,49.27915976,-122.98119479,1.16999996,
14.6920,0.0093,0.9865,0.0079,0.1749,-0.5357,2.8213,1.2600,0.3642,0.3809,49.27915976,-122.98119479,1.16999996,
14.6930,0.0093,0.9865,0.0079,0.1749,-0.5357,2.8213,0.6422,1.2545,0.5026,49.27915976,-122.98119479,1.16999996,
14.7460,-0.1620,0.9337,-0.0945,0.1749,-0.5357,2.8213,0.6422,1.2545,0.5026,49.27915976,-122.98119479,1.16999996,
14.7580,-0.1620,0.9337,-0.0945,-0.7340,0.1564,2.1091,0.6422,1.2545,0.5026,49.27915976,-122.98119479,1.16999996,
14.7600,-0.1620,0.9337,-0.0945,-0.7340,0.1564,2.1091,0.4537,1.0114,0.4722,49.27915976,-122.98119479,1.16999996,
14.8170,-0.1143,0.9591,-0.1084,-0.7340,0.1564,2.1091,0.4537,1.0114,0.4722,49.27915976,-122.98119479,1.16999996,
14.8390,-0.1143,0.9591,-0.1084,-2.6974,-0.4480,1.1747,0.4537,1.0114,0.4722,49.27915976,-122.98119479,1.16999996,
14.8400,-0.1143,0.9591,-0.1084,-2.6974,-0.4480,1.1747,0.7088,0.3930,0.3966,49.27915976,-122.98119479,1.16999996,
14.8740,-0.1084,1.2974,-0.0233,-2.6974,-0.4480,1.1747,0.7088,0.3930,0.3966,49.27915976,-122.98119479,1.16999996,
14.8920,-0.1084,1.2974,-0.0233,-2.6974,-0.4480,1.1747,0.2212,0.6606,0.1175,49.27915976,-122.98119479,1.16999996,
14.8940,-0.1084,1.2974,-0.0233,-1.4796,0.5881,2.1120,0.2212,0.6606,0.1175,49.27915976,-122.98119479,1.16999996,
14.9500,-0.2356,1.5684,-0.1178,-1.4796,0.5881,2.1120,0.2212,0.6606,0.1175,49.27915976,-122.98119479,1.16999996,
14.9680,-0.2356,1.5684,-0.1178,-1.4796,0.5881,2.1120,-1.5386,-0.0108,-0.5141,49.27915976,-122.98119479,1.16999996,
14.9690,-0.2356,1.5684,-0.1178,-2.8149,4.6849,1.0819,-1.5386,-0.0108,-0.5141,49.27915976,-122.98119479,1.16999996,
15.0070,0.1834,1.4058,-0.0865,-2.8149,4.6849,1.0819,-1.5386,-0.0108,-0.5141,49.27915976,-122.98119479,1.16999996,
15.0260,0.1834,1.4058,-0.0865,-1.5296,3.9749,-1.0269,-1.5386,-0.0108,-0.5141,49.27915976,-122.98119479,1.16999996,
15.0270,0.1834,1.4058,-0.0865,-1.5296,3.9749,-1.0269,-2.5448,-0.2847,-0.6165,49.27915976,-122.98119479,1.16999996,
15.0890,0.1273,1.2650,-0.0979,-1.5296,3.9749,-1.0269,-2.5448,-0.2847,-0.6165,49.27915976,-122.98119479,1.16999996,
15.1010,0.1273,1.2650,-0.0979,3.4011,4.2347,-2.3571,-2.5448,-0.2847,-0.6165,49.27915976,-122.98119479,1.16999996,
15.1030,0.1273,1.2650,-0.0979,3.4011,4.2347,-2.3571,-1.9010,-0.6531,-0.6764,49.27915976,-122.98119479,1.16999996,
15.1390,0.0387,0.9603,-0.0997,3.4011,4.2347,-2.3571,-1.9010,-0.6531,-0.6764,49.27915976,-122.98119479,1.16999996,
15.1570,0.0387,0.9603,-0.0997,3.4011,4.2347,-2.3571,-1.7762,-1.0376,-0.4467,49.27915976,-122.98119479,1.16999996,
15.1580,0.0387,0.9603,-0.0997,0.2593,1.9046,-3.1477,-1.7762,-1.0376,-0.4467,49.27915976,-122.98119479,1.16999996,
15.2150,0.2079,0.4748,0.0630,0.2593,1.9046,-3.1477,-1.7762,-1.0376,-0.4467,49.27915976,-122.98119479,1.16999996,
15.2340,0.2079,0.4748,0.0630,1.1138,-1.5223,-3.7592,-1.7762,-1.0376,-0.4467,49.27915976,-122.98119479,1.16999996,
15.2340,0.2079,0.4748,0.0630,1.1138,-1.5223,-3.7592,-0.8660,-0.6163,-0.3176,49.27915976,-122.98119479,1.16999996,
15.2720,0.2447,0.3101,0.0260,1.1138,-1.5223,-3.7592,-0.8660,-0.6163,-0.3176,49.27915976,-122.98119479,1.16999996,
15.2910,0.2447,0.3101,0.0260,1.1138,-1.5223,-3.7592,0.5175,0.5658,-0.3022,49.27915976,-122.98119479,1.16999996,
15.2910,0.2447,0.3101,0.0260,3.2990,-6.0282,-1.5734,0.5175,0.5658,-0.3022,49.27915976,-122.98119479,1.16999996,
15.3480,-0.2971,0.9158,0.4375,3.2990,-6.0282,-1.5734,0.5175,0.5658,-0.3022,49.27915976,-122.98119479,1.16999996,
15.3680,-0.2971,0.9158,0.4375,2.0670,-5.7056,-2.3009,0.5175,0.5658,-0.3022,49.27915976,-122.98119479,1.16999996,
15.3680,-0.2971,0.9158,0.4375,2.0670,-5.7056,-2.3009,0.4200,-0.8715,-0.2518,49.27915976,-122.98119479,1.16999996,
15.4060,-0.0877,1.1356,0.7947,2.0670,-5.7056,-2.3009,0.4200,-0.8715,-0.2518,49.27915976,-122.98119479,1.16999996,
15.4240,-0.0877,1.1356,0.7947,-3.4717,2.0208,4.5238,0.4200,-0.8715,-0.2518,49.27915976,-122.98119479,1.16999996,
15.4250,-0.0877,1.1356,0.7947,-3.4717,2.0208,4.5238,-0.0755,0.2578,-0.2448,49.27915976,-122.98119479,1.16999996,
15.4810,-0.1852,1.6017,0.2562,-3.4717,2.0208,4.5238,-0.0755,0.2578,-0.2448,49.27915976,-122.98119479,1.16999996,
15.5000,-0.1852,1.6017,0.2562,-3.4717,2.0208,4.5238,-0.0102,-0.2906,-0.5066,49.27915976,-122.98119479,1.16999996,
15.5000,-0.1852,1.6017,0.2562,3.2763,-1.2134,4.2517,-0.0102,-0.2906,-0.5066,49.27915976,-122.98119479,1.16999996,
15.5380,0.7125,0.1520,-0.1151,3.2763,-1.2134,4.2517,-0.0102,-0.2906,-0.5066,49.27915976,-122.98119479,1.16999996,
15.5570,0.7125,0.1520,-0.1151,-4.6914,10.5742,-1.8444,-0.0102,-0.2906,-0.5066,49.27915976,-122.98119479,1.16999996,
15.5580,0.7125,0.1520,-0.1151,-4.6914,10.5742,-1.8444,0.4069,0.8381,0.4322,49.27915976,-122.98119479,1.16999996,
15.6230,-0.4349,1.7485,-0.5520,-4.6914,10.5742,-1.8444,0.4069,0.8381,0.4322,49.27915976,-122.98119479,1.16999996,
15.6340,-0.4349,1.7485,-0.5520,-4.6914,10.5742,-1.8444,1.6656,1.0899,0.3249,49.27916312,-122.98121578,1.23000002,
15.6350,-0.4349,1.7485,-0.5520,10.9481,-10.8428,0.5922,1.6656,1.0899,0.3249,49.27916312,-122.98121578,1.23000002,
15.6720,0.0451,0.6637,0.0699,10.9481,-10.8428,0.5922,1.6656,1.0899,0.3249,49.27916312,-122.98121578,1.23000002,
15.6920,0.0451,0.6637,0.0699,10.9481,-10.8428,0.5922,1.6318,0.6534,0.4814,49.27916312,-122.98121578,1.23000002,
15.6940,0.0451,0.6637,0.0699,-3.6597,5.8226,-6.1975,1.6318,0.6534,0.4814,49.27916312,-122.98121578,1.23000002,
15.7470,-0.2029,0.9490,-0.1502,-3.6597,5.8226,-6.1975,1.6318,0.6534,0.4814,49.27916312,-122.98121578,1.23000002,
15.7600,-0.2029,0.9490,-0.1502,-3.6597,5.8226,-6.1975,1.3684,0.4482,0.5369,49.27916312,-122.98121578,1.23000002,
15.7620,-0.2029,0.9490,-0.1502,-1.0044,-2.2171,0.3263,1.3684,0.4482,0.5369,49.27916312,-122.98121578,1.23000002,
15.8160,-0.0413,0.9315,0.0568,-1.0044,-2.2171,0.3263,1.3684,0.4482,0.5369,49.27916312,-122.98121578,1.23000002,
15.8370,-0.0413,0.9315,0.0568,-1.6556,-0.7054,1.1779,1.3684,0.4482,0.5369,49.27916312,-122.98121578,1.23000002,
15.8390,-0.0413,0.9315,0.0568,-1.6556,-0.7054,1.1779,0.9183,0.8681,0.5780,49.27916312,-122.98121578,1.23000002,
15.8740,-0.0499,0.9571,-0.0171,-1.6556,-0.7054,1.1779,0.9183,0.8681,0.5780,49.27916312,-122.98121578,1.23000002,
15.8910,-0.0499,0.9571,-0.0171,-1.6556,-0.7054,1.1779,0.6963,0.5854,0.5947,49.27916312,-122.98121578,1.23000002,
15.8930,-0.0499,0.9571,-0.0171,-0.8656,-0.4224,2.0319,0.6963,0.5854,0.5947,49.27916312,-122.98121578,1.23000002,
15.9490,-0.1931,1.0014,-0.0322,-0.8656,-0.4224,2.0319,0.6963,0.5854,0.5947,49.27916312,-122.98121578,1.23000002,
15.9680,-0.1931,1.0014,-0.0322,-1.9725,0.1045,2.6799,0.6963,0.5854,0.5947,49.27916312,-122.98121578,1.23000002,
15.9690,-0.1931,1.0014,-0.0322,-1.9725,0.1045,2.6799,0.6840,0.4452,0.4575,49.27916312,-122.98121578,1.23000002,
16.0070,-0.0523,1.2100,0.0475,-1.9725,0.1045,2.6799,0.6840,0.4452,0.4575,49.27916312,-122.98121578,1.23000002,
16.0250,-0.0523,1.2100,0.0475,-1.9725,0.1045,2.6799,0.3423,0.4101,0.1156,49.27916312,-122.98121578,1.23000002,
16.0270,-0.0523,1.2100,0.0475,-3.0025,0.7665,2.2540,0.3423,0.4101,0.1156,49.27916312,-122.98121578,1.23000002,
16.0840,-0.1936,1.5718,-0.0934,-3.0025,0.7665,2.2540,0.3423,0.4101,0.1156,49.27916312,-122.98121578,1.23000002,
16.1010,-0.1936,1.5718,-0.0934,-1.2963,3.3245,1.9298,0.3423,0.4101,0.1156,49.27916312,-122.98121578,1.23000002,
16.1020,-0.1936,1.5718,-0.0934,-1.2963,3.3245,1.9298,-1.6317,0.5196,-0.6399,49.27916312,-122.98121578,1.23000002,
16.1390,0.2061,1.4485,-0.1404,-1.2963,3.3245,1.9298,-1.6317,0.5196,-0.6399,49.27916312,-122.98121578,1.23000002,
16.1590,0.2061,1.4485,-0.1404,-1.9170,4.3356,-1.8989,-1.6317,0.5196,-0.6399,49.27916312,-122.98121578,1.23000002,
16.1600,0.2061,1.4485,-0.1404,-1.9170,4.3356,-1.8989,-2.8981,0.0740,-0.5603,49.27916312,-122.98121578,1.23000002,
16.2150,0.1671,1.3037,-0.1757,-1.9170,4.3356,-1.8989,-2.8981,0.0740,-0.5603,49.27916312,-122.98121578,1.23000002,
16.2340,0.1671,1.3037,-0.1757,-1.9170,4.3356,-1.8989,-1.9008,0.0457,-1.1129,49.27916312,-122.98121578,1.23000002,
16.2350,0.1671,1.3037,-0.1757,4.1451,5.7053,-2.3117,-1.9008,0.0457,-1.1129,49.27916312,-122.98121578,1.23000002,
16.2730,-0.1335,0.9580,-0.0487,4.1451,5.7053,-2.3117,-1.9008,0.0457,-1.1129,49.27916312,-122.98121578,1.23000002,
16.2920,-0.1335,0.9580,-0.0487,4.1451,5.7053,-2.3117,-1.7957,-1.4389,-0.6268,49.27916312,-122.98121578,1.23000002,
16.2930,-0.1335,0.9580,-0.0487,-0.1346,1.6287,-4.7224,-1.7957,-1.4389,-0.6268,49.27916312,-122.98121578,1.23000002,
16.3500,0.2130,0.4776,0.0308,-0.1346,1.6287,-4.7224,-1.7957,-1.4389,-0.6268,49.27916312,-122.98121578,1.23000002,
16.3680,0.2130,0.4776,0.0308,-0.1032,-1.5151,-3.4604,-1.7957,-1.4389,-0.6268,49.27916312,-122.98121578,1.23000002,
16.3690,0.2130,0.4776,0.0308,-0.1032,-1.5151,-3.4604,-0.8991,-1.2130,-0.3608,49.27916312,-122.98121578,1.23000002,
16.4050,0.2812,0.3157,0.1374,-0.1032,-1.5151,-3.4604,-0.8991,-1.2130,-0.3608,49.27916312,-122.98121578,1.23000002,
16.4250,0.2812,0.3157,0.1374,-0.1032,-1.5151,-3.4604,0.6406,0.2216,-0.4350,49.27916312,-122.98121578,1.23000002,
16.4260,0.2812,0.3157,0.1374,3.6596,-5.6731,-2.0221,0.6406,0.2216,-0.4350,49.27916312,-122.98121578,1.23000002,
16.4820,-0.2399,0.8052,0.2558,3.6596,-5.6731,-2.0221,0.6406,0.2216,-0.4350,49.27916312,-122.98121578,1.23000002,
16.5000,-0.2399,0.8052,0.2558,3.6596,-5.6731,-2.0221,0.7090,-0.7514,-0.1341,49.27916312,-122.98121578,1.23000002,
16.5020,-0.2399,0.8052,0.2558,2.5130,-6.0279,-1.4140,0.7090,-0.7514,-0.1341,49.27916312,-122.98121578,1.23000002,
16.5380,-0.3158,1.2694,0.8825,2.5130,-6.0279,-1.4140,0.7090,-0.7514,-0.1341,49.27916312,-122.98121578,1.23000002,
16.5580,-0.3158,1.2694,0.8825,2.5130,-6.0279,-1.4140,-0.1907,-0.5575,-0.2053,49.27916312,-122.98121578,1.23000002,
16.5600,-0.3158,1.2694,0.8825,-3.2734,1.3378,2.2849,-0.1907,-0.5575,-0.2053,49.27916312,-122.98121578,1.23000002,
16.6150,0.0717,1.2547,0.3828,-3.2734,1.3378,2.2849,-0.1907,-0.5575,-0.2053,49.27916312,-122.98121578,1.23000002,
16.6330,0.0717,1.2547,0.3828,-3.2734,1.3378,2.2849,0.0215,-0.2322,-0.3905,49.27916561,-122.98123569,1.14999998,
16.6350,0.0717,1.2547,0.3828,0.1149,1.4274,5.2317,0.0215,-0.2322,-0.3905,49.27916561,-122.98123569,1.14999998,
16.6710,0.3880,0.7083,-0.1014,0.1149,1.4274,5.2317,0.0215,-0.2322,-0.3905,49.27916561,-122.98123569,1.14999998,
16.6910,0.3880,0.7083,-0.1014,-0.2875,6.9455,-0.8413,0.0215,-0.2322,-0.3905,49.27916561,-122.98123569,1.14999998,
16.6930,0.3880,0.7083,-0.1014,-0.2875,6.9455,-0.8413,-0.0638,0.1180,0.2066,49.27916561,-122.98123569,1.14999998,
16.7470,-0.1499,1.3272,-0.2889,-0.2875,6.9455,-0.8413,-0.0638,0.1180,0.2066,49.27916561,-122.98123569,1.14999998,
16.7590,-0.1499,1.3272,-0.2889,-0.2875,6.9455,-0.8413,1.7915,1.2660,0.0924,49.27916561,-122.98123569,1.14999998,
16.7600,-0.1499,1.3272,-0.2889,8.0298,-7.5854,1.2281,1.7915,1.2660,0.0924,49.27916561,-122.98123569,1.14999998,
16.8140,0.0384,0.8964,0.0636,8.0298,-7.5854,1.2281,1.7915,1.2660,0.0924,49.27916561,-122.98123569,1.14999998,
16.8380,0.0384,0.8964,0.0636,8.0298,-7.5854,1.2281,1.3553,0.0867,0.4635,49.27916561,-122.98123569,1.14999998,
16.8400,0.0384,0.8964,0.0636,-4.0244,4.1025,-6.9077,1.3553,0.0867,0.4635,49.27916561,-122.98123569,1.14999998,
16.8710,-0.1840,0.9379,-0.1383,-4.0244,4.1025,-6.9077,1.3553,0.0867,0.4635,49.27916561,-122.98123569,1.14999998,
16.8910,-0.1840,0.9379,-0.1383,-4.0244,4.1025,-6.9077,1.5462,0.3361,0.3813,49.27916561,-122.98123569,1.14999998,
16.8920,-0.1840,0.9379,-0.1383,1.0758,-1.2704,1.2146,1.5462,0.3361,0.3813,49.27916561,-122.98123569,1.14999998,
16.9480,-0.0542,0.9472,0.1010,1.0758,-1.2704,1.2146,1.5462,0.3361,0.3813,49.27916561,-122.98123569,1.14999998,
16.9670,-0.0542,0.9472,0.1010,-1.5889,-0.7246,0.0776,1.5462,0.3361,0.3813,49.27916561,-122.98123569,1.14999998,
16.9690,-0.0542,0.9472,0.1010,-1.5889,-0.7246,0.0776,1.0893,0.6681,0.4026,49.27916561,-122.98123569,1.14999998,
17.0040,-0.0560,0.9560,-0.0513,-1.5889,-0.7246,0.0776,1.0893,0.6681,0.4026,49.27916561,-122.98123569,1.14999998,
17.0250,-0.0560,0.9560,-0.0513,-1.5889,-0.7246,0.0776,0.6612,0.7793,0.5467,49.27916561,-122.98123569,1.14999998,
17.0260,-0.0560,0.9560,-0.0513,-0.9039,-0.3927,2.8490,0.6612,0.7793,0.5467,49.27916561,-122.98123569,1.14999998,
17.0810,-0.0517,0.9583,-0.0767,-0.9039,-0.3927,2.8490,0.6612,0.7793,0.5467,49.27916561,-122.98123569,1.14999998,
17.1010,-0.0517,0.9583,-0.0767,-0.9814,-0.3033,1.3234,0.6612,0.7793,0.5467,49.27916561,-122.98123569,1.14999998,
17.1020,-0.0517,0.9583,-0.0767,-0.9814,-0.3033,1.3234,0.6690,0.8435,0.5635,49.27916561,-122.98123569,1.14999998,
17.1400,-0.1391,0.9718,-0.1086,-0.9814,-0.3033,1.3234,0.6690,0.8435,0.5635,49.27916561,-122.98123569,1.14999998,
17.1580,-0.1391,0.9718,-0.1086,-0.9814,-0.3033,1.3234,0.6577,0.3979,0.4256,49.27916561,-122.98123569,1.14999998,
17.1590,-0.1391,0.9718,-0.1086,-2.1809,-0.0002,1.3286,0.6577,0.3979,0.4256,49.27916561,-122.98123569,1.14999998,
17.2140,-0.1055,1.1461,0.0279,-2.1809,-0.0002,1.3286,0.6577,0.3979,0.4256,49.27916561,-122.98123569,1.14999998,
17.2330,-0.1055,1.1461,0.0279,-2.2763,0.2872,2.0040,0.6577,0.3979,0.4256,49.27916561,-122.98123569,1.14999998,
17.2350,-0.1055,1.1461,0.0279,-2.2763,0.2872,2.0040,0.4680,0.7211,0.1207,49.27916561,-122.98123569,1.14999998,
17.2710,-0.2665,1.6350,-0.1818,-2.2763,0.2872,2.0040,0.4680,0.7211,0.1207,49.27916561,-122.98123569,1.14999998,
17.2900,-0.2665,1.6350,-0.1818,-2.2763,0.2872,2.0040,-1.3369,0.2745,-0.5263,49.27916561,-122.98123569,1.14999998,
17.2920,-0.2665,1.6350,-0.1818,-2.6869,2.8980,1.7145,-1.3369,0.2745,-0.5263,49.27916561,-122.98123569,1.14999998,
17.3480,0.1415,1.3293,-0.1293,-2.6869,2.8980,1.7145,-1.3369,0.2745,-0.5263,49.27916561,-122.98123569,1.14999998,
17.3660,0.1415,1.3293,-0.1293,-2.6380,5.3798,-2.3420,-1.3369,0.2745,-0.5263,49.27916561,-122.98123569,1.14999998,
17.3680,0.1415,1.3293,-0.1293,-2.6380,5.3798,-2.3420,-2.9194,-0.5735,-0.6268,49.27916561,-122.98123569,1.14999998,
17.4050,0.0659,1.2589,-0.0547,-2.6380,5.3798,-2.3420,-2.9194,-0.5735,-0.6268,49.27916561,-122.98123569,1.14999998,
17.4240,0.0659,1.2589,-0.0547,-2.6380,5.3798,-2.3420,-1.7753,-0.2358,-0.8358,49.27916561,-122.98123569,1.14999998,
17.4250,0.0659,1.2589,-0.0547,2.8543,3.9205,-1.4377,-1.7753,-0.2358,-0.8358,49.27916561,-122.98123569,1.14999998,
17.4810,-0.2626,1.0441,-0.1738,2.8543,3.9205,-1.4377,-1.7753,-0.2358,-0.8358,49.27916561,-122.98123569,1.14999998,
17.5000,-0.2626,1.0441,-0.1738,2.8543,3.9205,-1.4377,-1.6830,-2.2187,-0.8481,49.27916561,-122.98123569,1.14999998,
17.5010,-0.2626,1.0441,-0.1738,-1.0054,1.3152,-4.0999,-1.6830,-2.2187,-0.8481,49.27916561,-122.98123569,1.14999998,
17.5380,0.1719,0.5814,0.0862,-1.0054,1.3152,-4.0999,-1.6830,-2.2187,-0.8481,49.27916561,-122.98123569,1.14999998,
17.5570,0.1719,0.5814,0.0862,-1.0054,1.3152,-4.0999,-0.7944,-1.7879,-0.7230,49.27916561,-122.98123569,1.14999998,
17.5590,0.1719,0.5814,0.0862,-1.2463,-0.1977,-3.7320,-0.7944,-1.7879,-0.7230,49.27916561,-122.98123569,1.14999998,
17.6130,0.2499,0.4150,0.0464,-1.2463,-0.1977,-3.7320,-0.7944,-1.7879,-0.7230,49.27916561,-122.98123569,1.14999998,
17.6330,0.2499,0.4150,0.0464,-1.2463,-0.1977,-3.7320,0.4367,-0.3440,-0.6136,49.27916512,-122.98125140,1.13000000,
17.6340,0.2499,0.4150,0.0464,3.3612,-5.3081,-1.5055,0.4367,-0.3440,-0.6136,49.27916512,-122.98125140,1.13000000,
17.6700,-0.0854,0.7057,0.1602,3.3612,-5.3081,-1.5055,0.4367,-0.3440,-0.6136,49.27916512,-122.98125140,1.13000000,
17.6890,-0.0854,0.7057,0.1602,3.3612,-5.3081,-1.5055,0.4310,-0.7716,0.0065,49.27916512,-122.98125140,1.13000000,
17.6890,-0.0854,0.7057,0.1602,2.4556,-4.6153,-2.1474,0.4310,-0.7716,0.0065,49.27916512,-122.98125140,1.13000000,
17.7460,-0.1484,1.2889,0.6646,2.4556,-4.6153,-2.1474,0.4310,-0.7716,0.0065,49.27916512,-122.98125140,1.13000000,
17.7560,-0.1484,1.2889,0.6646,-1.1987,-0.8637,1.0808,0.4310,-0.7716,0.0065,49.27916512,-122.98125140,1.13000000,
17.7570,-0.1484,1.2889,0.6646,-1.1987,-0.8637,1.0808,-0.2045,-0.6481,-0.2216,49.27916512,-122.98125140,1.13000000,
17.8130,-0.1560,0.8828,0.7109,-1.1987,-0.8637,1.0808,-0.2045,-0.6481,-0.2216,49.27916512,-122.98125140,1.13000000,
17.8370,-0.1560,0.8828,0.7109,-1.1987,-0.8637,1.0808,0.1770,0.3073,-0.6389,49.27916512,-122.98125140,1.13000000,
17.8380,-0.1560,0.8828,0.7109,0.1855,3.5154,4.6058,0.1770,0.3073,-0.6389,49.27916512,-122.98125140,1.13000000,
17.8700,-0.6615,1.8296,-0.2058,0.1855,3.5154,4.6058,0.1770,0.3073,-0.6389,49.27916512,-122.98125140,1.13000000,
17.8890,-0.6615,1.8296,-0.2058,-2.3192,-2.0553,2.6928,0.1770,0.3073,-0.6389,49.27916512,-122.98125140,1.13000000,
17.8900,-0.6615,1.8296,-0.2058,-2.3192,-2.0553,2.6928,-0.3771,-1.8537,0.5041,49.27916512,-122.98125140,1.13000000,
17.9480,1.3893,-0.1392,0.4879,-2.3192,-2.0553,2.6928,-0.3771,-1.8537,0.5041,49.27916512,-122.98125140,1.13000000,
17.9670,1.3893,-0.1392,0.4879,-2.3192,-2.0553,2.6928,1.7576,1.6959,-0.2907,49.27916512,-122.98125140,1.13000000,
17.9680,1.3893,-0.1392,0.4879,-0.2366,5.2204,-4.9994,1.7576,1.6959,-0.2907,49.27916512,-122.98125140,1.13000000,
18.0040,-0.6180,1.6135,-0.7403,-0.2366,5.2204,-4.9994,1.7576,1.6959,-0.2907,49.27916512,-122.98125140,1.13000000,
18.0230,-0.6180,1.6135,-0.7403,-0.2366,5.2204,-4.9994,1.0251,0.4066,0.7511,49.27916512,-122.98125140,1.13000000,
18.0250,-0.6180,1.6135,-0.7403,7.3834,-4.8675,1.2849,1.0251,0.4066,0.7511,49.27916512,-122.98125140,1.13000000,
18.0800,-0.0002,0.7741,-0.0574,7.3834,-4.8675,1.2849,1.0251,0.4066,0.7511,49.27916512,-122.98125140,1.13000000,
18.0990,-0.0002,0.7741,-0.0574,-2.7686,1.6089,-3.4736,1.0251,0.4066,0.7511,49.27916512,-122.98125140,1.13000000,
18.1010,-0.0002,0.7741,-0.0574,-2.7686,1.6089,-3.4736,1.7166,-0.3439,0.5378,49.27916512,-122.98125140,1.13000000,
18.1370,0.0154,0.9391,-0.0714,-2.7686,1.6089,-3.4736,1.7166,-0.3439,0.5378,49.27916512,-122.98125140,1.13000000,
18.1580,0.0154,0.9391,-0.0714,-2.7686,1.6089,-3.4736,1.5368,0.3080,0.5492,49.27916512,-122.98125140,1.13000000,
18.1590,0.0154,0.9391,-0.0714,-0.9221,-0.8768,0.3593,1.5368,0.3080,0.5492,49.27916512,-122.98125140,1.13000000,
18.2130,-0.0619,0.9298,-0.0214,-0.9221,-0.8768,0.3593,1.5368,0.3080,0.5492,49.27916512,-122.98125140,1.13000000,
18.2330,-0.0619,0.9298,-0.0214,-0.9221,-0.8768,0.3593,0.9970,0.9226,0.6090,49.27916512,-122.98125140,1.13000000,
18.2340,-0.0619,0.9298,-0.0214,-0.7078,-0.7589,1.7979,0.9970,0.9226,0.6090,49.27916512,-122.98125140,1.13000000,
18.2700,-0.0693,0.9969,-0.0095,-0.7078,-0.7589,1.7979,0.9970,0.9226,0.6090,49.27916512,-122.98125140,1.13000000,
18.2890,-0.0693,0.9969,-0.0095,-0.7078,-0.7589,1.7979,0.5922,0.2572,0.5644,49.27916512,-122.98125140,1.13000000,
18.2910,-0.0693,0.9969,-0.0095,-1.8148,-0.2503,1.2915,0.5922,0.2572,0.5644,49.27916512,-122.98125140,1.13000000,
18.3470,-0.2420,0.9954,-0.0637,-1.8148,-0.2503,1.2915,0.5922,0.2572,0.5644,49.27916512,-122.98125140,1.13000000,
18.3660,-0.2420,0.9954,-0.0637,-2.6146,0.5710,3.5007,0.5922,0.2572,0.5644,49.27916512,-122.98125140,1.13000000,
18.3670,-0.2420,0.9954,-0.0637,-2.6146,0.5710,3.5007,0.5168,0.3716,0.4090,49.27916512,-122.98125140,1.13000000,
18.4040,-0.0342,1.4846,-0.0070,-2.6146,0.5710,3.5007,0.5168,0.3716,0.4090,49.27916512,-122.98125140,1.13000000,
18.4220,-0.0342,1.4846,-0.0070,-3.1278,1.0383,1.2931,0.5168,0.3716,0.4090,49.27916512,-122.98125140,1.13000000,
18.4240,-0.0342,1.4846,-0.0070,-3.1278,1.0383,1.2931,-0.1980,-0.1079,-0.2279,49.27916512,-122.98125140,1.13000000,
18.4800,-0.0434,1.4636,-0.1933,-3.1278,1.0383,1.2931,-0.1980,-0.1079,-0.2279,49.27916512,-122.98125140,1.13000000,
18.4990,-0.0434,1.4636,-0.1933,-1.5785,5.5957,0.2069,-0.1980,-0.1079,-0.2279,49.27916512,-122.98125140,1.13000000,
18.5010,-0.0434,1.4636,-0.1933,-1.5785,5.5957,0.2069,-2.3687,-0.0107,-0.7591,49.27916512,-122.98125140,1.13000000,
18.5370,0.4031,1.4711,-0.0544,-1.5785,5.5957,0.2069,-2.3687,-0.0107,-0.7591,49.27916512,-122.98125140,1.13000000,
18.5570,0.4031,1.4711,-0.0544,0.9621,4.0519,-2.3774,-2.3687,-0.0107,-0.7591,49.27916512,-122.98125140,1.13000000,
18.5580,0.4031,1.4711,-0.0544,0.9621,4.0519,-2.3774,-2.1745,0.4735,-1.0091,49.27916512,-122.98125140,1.13000000,
18.6240,-0.0720,1.0577,-0.1218,0.9621,4.0519,-2.3774,-2.1745,0.4735,-1.0091,49.27916512,-122.98125140,1.13000000,
18.6310,-0.0720,1.0577,-0.1218,3.6414,3.2937,-2.0109,-2.1745,0.4735,-1.0091,49.27916324,-122.98126491,1.13000000,
18.6330,-0.0720,1.0577,-0.1218,3.6414,3.2937,-2.0109,-1.6510,-0.9371,-1.1724,49.27916324,-122.98126491,1.13000000,
18.6690,-0.0240,0.7713,-0.1418,3.6414,3.2937,-2.0109,-1.6510,-0.9371,-1.1724,49.27916324,-122.98126491,1.13000000,
18.6890,-0.0240,0.7713,-0.1418,3.6414,3.2937,-2.0109,-1.4634,-2.2290,-0.7164,49.27916324,-122.98126491,1.13000000,
18.6910,-0.0240,0.7713,-0.1418,-0.2893,0.2147,-3.8741,-1.4634,-2.2290,-0.7164,49.27916324,-122.98126491,1.13000000,
18.7470,0.2787,0.4594,0.1268,-0.2893,0.2147,-3.8741,-1.4634,-2.2290,-0.7164,49.27916324,-122.98126491,1.13000000,
18.7660,0.2787,0.4594,0.1268,1.2192,-2.8555,-3.8796,-1.4634,-2.2290,-0.7164,49.27916324,-122.98126491,1.13000000,
18.7670,0.2787,0.4594,0.1268,1.2192,-2.8555,-3.8796,-0.5300,-1.0778,-0.3968,49.27916324,-122.98126491,1.13000000,
18.8040,0.2548,0.4700,0.0998,1.2192,-2.8555,-3.8796,-0.5300,-1.0778,-0.3968,49.27916324,-122.98126491,1.13000000,
18.8220,0.2548,0.4700,0.0998,1.2192,-2.8555,-3.8796,0.6264,0.1740,-0.3912,49.27916324,-122.98126491,1.13000000,
18.8230,0.2548,0.4700,0.0998,4.1520,-5.4036,-0.8217,0.6264,0.1740,-0.3912,49.27916324,-122.98126491,1.13000000,
18.8800,-0.2912,1.0395,0.4845,4.1520,-5.4036,-0.8217,0.6264,0.1740,-0.3912,49.27916324,-122.98126491,1.13000000,
18.9000,-0.2912,1.0395,0.4845,4.1520,-5.4036,-0.8217,0.0343,-0.5941,-0.0746,49.27916324,-122.98126491,1.13000000,
18.9010,-0.2912,1.0395,0.4845,2.1085,-3.7933,-1.4979,0.0343,-0.5941,-0.0746,49.27916324,-122.98126491,1.13000000,
18.9370,-0.0926,1.2952,0.8851,2.1085,-3.7933,-1.4979,0.0343,-0.5941,-0.0746,49.27916324,-122.98126491,1.13000000,
18.9560,-0.0926,1.2952,0.8851,-2.4445,2.0773,3.6959,0.0343,-0.5941,-0.0746,49.27916324,-122.98126491,1.13000000,
18.9570,-0.0926,1.2952,0.8851,-2.4445,2.0773,3.6959,-0.3586,0.0619,-0.3097,49.27916324,-122.98126491,1.13000000,
19.0130,0.1994,0.7288,0.4028,-2.4445,2.0773,3.6959,-0.3586,0.0619,-0.3097,49.27916324,-122.98126491,1.13000000,
19.0320,0.1994,0.7288,0.4028,-2.4445,2.0773,3.6959,0.4339,0.4124,-0.0893,49.27916324,-122.98126491,1.13000000,
19.0330,0.1994,0.7288,0.4028,2.2354,1.3317,5.4933,0.4339,0.4124,-0.0893,49.27916324,-122.98126491,1.13000000,
19.0700,-0.1844,1.3431,-0.0401,2.2354,1.3317,5.4933,0.4339,0.4124,-0.0893,49.27916324,-122.98126491,1.13000000,
19.0890,-0.1844,1.3431,-0.0401,0.8350,2.0147,-0.7589,0.4339,0.4124,-0.0893,49.27916324,-122.98126491,1.13000000,
19.0900,-0.1844,1.3431,-0.0401,0.8350,2.0147,-0.7589,-0.1117,0.1101,0.3008,49.27916324,-122.98126491,1.13000000,
19.1480,0.2881,0.7824,0.0623,0.8350,2.0147,-0.7589,-0.1117,0.1101,0.3008,49.27916324,-122.98126491,1.13000000,
19.1650,0.2881,0.7824,0.0623,0.8350,2.0147,-0.7589,1.9231,1.5886,-0.1985,49.27916324,-122.98126491,1.13000000,
19.1660,0.2881,0.7824,0.0623,4.5034,-2.1637,0.0844,1.9231,1.5886,-0.1985,49.27916324,-122.98126491,1.13000000,
19.2030,-0.0940,1.0599,-0.1293,4.5034,-2.1637,0.0844,1.9231,1.5886,-0.1985,49.27916324,-122.98126491,1.13000000,
19.2220,-0.0940,1.0599,-0.1293,-2.4926,1.7553,-3.5469,1.9231,1.5886,-0.1985,49.27916324,-122.98126491,1.13000000,
19.2240,-0.0940,1.0599,-0.1293,-2.4926,1.7553,-3.5469,1.1000,0.4768,0.7654,49.27916324,-122.98126491,1.13000000,
19.2790,-0.1613,0.9444,-0.1278,-2.4926,1.7553,-3.5469,1.1000,0.4768,0.7654,49.27916324,-122.98126491,1.13000000,
19.2990,-0.1613,0.9444,-0.1278,2.2798,-1.5731,2.0537,1.1000,0.4768,0.7654,49.27916324,-122.98126491,1.13000000,
19.3000,-0.1613,0.9444,-0.1278,2.2798,-1.5731,2.0537,1.7103,0.7719,0.3647,49.27916324,-122.98126491,1.13000000,
19.3370,-0.1999,0.9176,-0.0441,2.2798,-1.5731,2.0537,1.7103,0.7719,0.3647,49.27916324,-122.98126491,1.13000000,
19.3560,-0.1999,0.9176,-0.0441,-2.4294,-0.0966,-0.5725,1.7103,0.7719,0.3647,49.27916324,-122.98126491,1.13000000,
19.3570,-0.1999,0.9176,-0.0441,-2.4294,-0.0966,-0.5725,1.1996,0.2550,0.4190,49.27916324,-122.98126491,1.13000000,
19.4130,0.0135,0.9261,0.0147,-2.4294,-0.0966,-0.5725,1.1996,0.2550,0.4190,49.27916324,-122.98126491,1.13000000,
19.4320,0.0135,0.9261,0.0147,-1.5271,-0.4827,2.1981,1.1996,0.2550,0.4190,49.27916324,-122.98126491,1.13000000,
19.4330,0.0135,0.9261,0.0147,-1.5271,-0.4827,2.1981,0.8261,0.6332,0.4099,49.27916324,-122.98126491,1.13000000,
19.4690,0.0427,0.9415,-0.0943,-1.5271,-0.4827,2.1981,0.8261,0.6332,0.4099,49.27916324,-122.98126491,1.13000000,
19.4900,0.0427,0.9415,-0.0943,0.1778,-0.4666,2.1712,0.8261,0.6332,0.4099,49.27916324,-122.98126491,1.13000000,
19.4910,0.0427,0.9415,-0.0943,0.1778,-0.4666,2.1712,0.6472,1.1255,0.4909,49.27916324,-122.98126491,1.13000000,
19.5460,-0.1927,0.9733,-0.0391,0.1778,-0.4666,2.1712,0.6472,1.1255,0.4909,49.27916324,-122.98126491,1.13000000,
19.5650,-0.1927,0.9733,-0.0391,-1.0152,-0.1301,1.6794,0.6472,1.1255,0.4909,49.27916324,-122.98126491,1.13000000,
19.5660,-0.1927,0.9733,-0.0391,-1.0152,-0.1301,1.6794,0.7863,1.1488,0.5631,49.27916324,-122.98126491,1.13000000,
19.6030,-0.2305,1.1809,-0.0847,-1.0152,-0.1301,1.6794,0.7863,1.1488,0.5631,49.27916324,-122.98126491,1.13000000,
19.6220,-0.2305,1.1809,-0.0847,-3.7026,0.4486,2.5106,0.7863,1.1488,0.5631,49.27916324,-122.98126491,1.13000000,
19.6230,-0.2305,1.1809,-0.0847,-3.7026,0.4486,2.5106,0.3184,0.3984,0.0662,49.27916324,-122.98126491,1.13000000,
19.6790,-0.1794,1.7597,-0.2041,-3.7026,0.4486,2.5106,0.3184,0.3984,0.0662,49.27916324,-122.98126491,1.13000000,
19.6980,-0.1794,1.7597,-0.2041,-3.7026,0.4486,2.5106,-1.5720,-0.0702,-0.7314,49.27916324,-122.98126491,1.13000000,
19.6990,-0.1794,1.7597,-0.2041,-3.2667,4.1236,0.8424,-1.5720,-0.0702,-0.7314,49.27916324,-122.98126491,1.13000000,
19.7370,0.2909,1.4252,-0.0628,-3.2667,4.1236,0.8424,-1.5720,-0.0702,-0.7314,49.27916324,-122.98126491,1.13000000,
19.7660,0.2909,1.4252,-0.0628,-3.2667,4.1236,0.8424,-2.7152,0.1492,-0.5422,49.27916324,-122.98126491,1.13000000,
19.7670,0.2909,1.4252,-0.0628,-0.2805,5.5984,-1.6024,-2.7152,0.1492,-0.5422,49.27916324,-122.98126491,1.13000000,
19.8030,0.0089,1.2482,-0.2019,-0.2805,5.5984,-1.6024,-2.7152,0.1492,-0.5422,49.27916324,-122.98126491,1.13000000,
19.8220,0.0089,1.2482,-0.2019,3.6063,4.2552,-2.2536,-2.7152,0.1492,-0.5422,49.27916324,-122.98126491,1.13000000,
19.8230,0.0089,1.2482,-0.2019,3.6063,4.2552,-2.2536,-2.0537,-0.8449,-0.7733,49.27916324,-122.98126491,1.13000000,
19.8790,0.0332,0.9259,-0.1175,3.6063,4.2552,-2.2536,-2.0537,-0.8449,-0.7733,49.27916324,-122.98126491,1.13000000,
19.8990,0.0332,0.9259,-0.1175,-0.7555,1.8893,-4.3300,-2.0537,-0.8449,-0.7733,49.27916324,-122.98126491,1.13000000,
19.9010,0.0332,0.9259,-0.1175,-0.7555,1.8893,-4.3300,-2.0580,-1.1635,-0.4984,49.27916324,-122.98126491,1.13000000,
19.9370,0.2404,0.4251,0.0899,-0.7555,1.8893,-4.3300,-2.0580,-1.1635,-0.4984,49.27916324,-122.98126491,1.13000000,
19.9550,0.2404,0.4251,0.0899,-0.7555,1.8893,-4.3300,-1.1965,-0.6067,-0.4392,49.27916324,-122.98126491,1.13000000,
19.9560,0.2404,0.4251,0.0899,1.7514,-1.8066,-3.9748,-1.1965,-0.6067,-0.4392,49.27916324,-122.98126491,1.13000000,
20.0140,0.2042,0.3040,0.1243,1.7514,-1.8066,-3.9748,-1.1965,-0.6067,-0.4392,49.27916324,-122.98126491,1.13000000,
20.0330,0.2042,0.3040,0.1243,3.3307,-6.1217,-1.7132,-1.1965,-0.6067,-0.4392,49.27916324,-122.98126491,1.13000000,
20.0340,0.2042,0.3040,0.1243,3.3307,-6.1217,-1.7132,0.3058,0.6426,-0.3949,49.27916324,-122.98126491,1.13000000,
20.0700,-0.2719,0.6638,0.3200,3.3307,-6.1217,-1.7132,0.3058,0.6426,-0.3949,49.27916324,-122.98126491,1.13000000,
20.0890,-0.2719,0.6638,0.3200,2.2020,-6.1048,-1.4350,0.3058,0.6426,-0.3949,49.27916324,-122.98126491,1.13000000,
20.0910,-0.2719,0.6638,0.3200,2.2020,-6.1048,-1.4350,0.7052,-0.5105,-0.1540,49.27916324,-122.98126491,1.13000000,
20.1460,-0.5170,1.5364,0.9389,2.2020,-6.1048,-1.4350,0.7052,-0.5105,-0.1540,49.27916324,-122.98126491,1.13000000,
20.1640,-0.5170,1.5364,0.9389,2.2020,-6.1048,-1.4350,-0.0781,-1.1200,-0.0987,49.27916324,-122.98126491,1.13000000,
20.1650,-0.5170,1.5364,0.9389,-4.2932,0.4061,2.5274,-0.0781,-1.1200,-0.0987,49.27916324,-122.98126491,1.13000000,
20.2030,0.4367,1.1701,0.3098,-4.2932,0.4061,2.5274,-0.0781,-1.1200,-0.0987,49.27916324,-122.98126491,1.13000000,
20.2200,0.4367,1.1701,0.3098,-0.1973,3.2671,5.4522,-0.0781,-1.1200,-0.0987,49.27916324,-122.98126491,1.13000000,
20.2220,0.4367,1.1701,0.3098,-0.1973,3.2671,5.4522,0.0837,-0.5374,-0.3907,49.27916324,-122.98126491,1.13000000,
20.2780,0.3534,0.6052,0.0422,-0.1973,3.2671,5.4522,0.0837,-0.5374,-0.3907,49.27916324,-122.98126491,1.13000000,
20.2970,0.3534,0.6052,0.0422,1.6440,6.3797,0.1963,0.0837,-0.5374,-0.3907,49.27916324,-122.98126491,1.13000000,
20.2990,0.3534,0.6052,0.0422,1.6440,6.3797,0.1963,0.2388,1.3500,0.2919,49.27916324,-122.98126491,1.13000000,
20.3390,-0.5270,1.3621,-0.3865,1.6440,6.3797,0.1963,0.2388,1.3500,0.2919,49.27916324,-122.98126491,1.13000000,
20.3560,-0.5270,1.3621,-0.3865,7.2713,-8.2251,0.5140,0.2388,1.3500,0.2919,49.27916324,-122.98126491,1.13000000,
20.3570,-0.5270,1.3621,-0.3865,7.2713,-8.2251,0.5140,1.8101,0.5616,0.0292,49.27916324,-122.98126491,1.13000000,
20.4120,0.3356,0.8112,0.1208,7.2713,-8.2251,0.5140,1.8101,0.5616,0.0292,49.27916324,-122.98126491,1.13000000,
20.4310,0.3356,0.8112,0.1208,-5.5475,4.2991,-6.7603,1.8101,0.5616,0.0292,49.27916324,-122.98126491,1.13000000,
20.4320,0.3356,0.8112,0.1208,-5.5475,4.2991,-6.7603,1.3932,-0.0866,0.4902,49.27916324,-122.98126491,1.13000000,
20.4700,-0.1309,1.0054,-0.1732,-5.5475,4.2991,-6.7603,1.3932,-0.0866,0.4902,49.27916324,-122.98126491,1.13000000,
20.4870,-0.1309,1.0054,-0.1732,-5.5475,4.2991,-6.7603,1.5862,0.5993,0.2676,49.27916324,-122.98126491,1.13000000,
20.4890,-0.1309,1.0054,-0.1732,3.5529,-1.8565,1.6759,1.5862,0.5993,0.2676,49.27916324,-122.98126491,1.13000000,
20.5460,-0.1640,0.9253,0.0415,3.5529,-1.8565,1.6759,1.5862,0.5993,0.2676,49.27916324,-122.98126491,1.13000000,
20.5640,-0.1640,0.9253,0.0415,-1.5439,-0.3621,-0.0746,1.5862,0.5993,0.2676,49.27916324,-122.98126491,1.13000000,
20.5650,-0.1640,0.9253,0.0415,-1.5439,-0.3621,-0.0746,1.0963,0.9664,0.4071,49.27916324,-122.98126491,1.13000000,
20.6010,-0.0824,0.9154,-0.0757,-1.5439,-0.3621,-0.0746,1.0963,0.9664,0.4071,49.27916324,-122.98126491,1.13000000,
20.6210,-0.0824,0.9154,-0.0757,-1.5439,-0.3621,-0.0746,0.7259,0.7773,0.5476,49.27916324,-122.98126491,1.13000000,
20.6230,-0.0824,0.9154,-0.0757,-1.8084,-0.4710,2.4358,0.7259,0.7773,0.5476,49.27916150,-122.98128987,1.15999997,
20.6780,-0.0438,0.9585,-0.0265,-1.8084,-0.4710,2.4358,0.7259,0.7773,0.5476,49.27916150,-122.98128987,1.15999997,
20.6970,-0.0438,0.9585,-0.0265,-1.8084,-0.4710,2.4358,0.6806,1.0557,0.5905,49.27916150,-122.98128987,1.15999997,
20.6980,-0.0438,0.9585,-0.0265,-1.2397,-0.3634,1.4095,0.6806,1.0557,0.5905,49.27916150,-122.98128987,1.15999997,
20.7360,-0.1371,0.9955,-0.0746,-1.2397,-0.3634,1.4095,0.6806,1.0557,0.5905,49.27916150,-122.98128987,1.15999997,
20.7640,-0.1371,0.9955,-0.0746,-1.2397,-0.3634,1.4095,0.6949,0.6138,0.4150,49.27916150,-122.98128987,1.15999997,
20.7660,-0.1371,0.9955,-0.0746,-2.0464,0.1020,2.2895,0.6949,0.6138,0.4150,49.27916150,-122.98128987,1.15999997,
20.8020,-0.1820,1.3518,0.0828,-2.0464,0.1020,2.2895,0.6949,0.6138,0.4150,49.27916150,-122.98128987,1.15999997,
20.8210,-0.1820,1.3518,0.0828,-2.4595,0.8985,2.2807,0.6949,0.6138,0.4150,49.27916150,-122.98128987,1.15999997,
20.8220,-0.1820,1.3518,0.0828,-2.4595,0.8985,2.2807,-0.0164,1.1037,0.1062,49.27916150,-122.98128987,1.15999997,
20.8790,-0.2202,1.4807,-0.1944,-2.4595,0.8985,2.2807,-0.0164,1.1037,0.1062,49.27916150,-122.98128987,1.15999997,
20.8970,-0.2202,1.4807,-0.1944,-2.4595,0.8985,2.2807,-2.2308,0.2106,-0.6879,49.27916150,-122.98128987,1.15999997,
20.8980,-0.2202,1.4807,-0.1944,-2.9635,4.5665,1.3742,-2.2308,0.2106,-0.6879,49.27916150,-122.98128987,1.15999997,
20.9370,0.2387,1.6097,-0.0650,-2.9635,4.5665,1.3742,-2.2308,0.2106,-0.6879,49.27916150,-122.98128987,1.15999997,
20.9540,0.2387,1.6097,-0.0650,-2.9635,4.5665,1.3742,-2.4773,-0.2409,-0.7284,49.27916150,-122.98128987,1.15999997,
20.9560,0.2387,1.6097,-0.0650,-2.1143,3.7009,-3.0884,-2.4773,-0.2409,-0.7284,49.27916150,-122.98128987,1.15999997,
21.0130,-0.1570,1.0772,-0.1945,-2.1143,3.7009,-3.0884,-2.4773,-0.2409,-0.7284,49.27916150,-122.98128987,1.15999997,
21.0310,-0.1570,1.0772,-0.1945,-2.1143,3.7009,-3.0884,-1.9151,-1.1937,-1.2646,49.27916150,-122.98128987,1.15999997,
21.0330,-0.1570,1.0772,-0.1945,2.6874,5.6829,-2.2123,-1.9151,-1.1937,-1.2646,49.27916150,-122.98128987,1.15999997,
21.0680,-0.1385,0.8880,-0.1534,2.6874,5.6829,-2.2123,-1.9151,-1.1937,-1.2646,49.27916150,-122.98128987,1.15999997,
21.0880,-0.1385,0.8880,-0.1534,-1.7091,0.5212,-4.5353,-1.9151,-1.1937,-1.2646,49.27916150,-122.98128987,1.15999997,
21.0890,-0.1385,0.8880,-0.1534,-1.7091,0.5212,-4.5353,-1.5317,-2.6870,-0.8759,49.27916150,-122.98128987,1.15999997,
21.1450,0.2965,0.4936,0.0827,-1.7091,0.5212,-4.5353,-1.5317,-2.6870,-0.8759,49.27916150,-122.98128987,1.15999997,
21.1630,0.2965,0.4936,0.0827,-1.7091,0.5212,-4.5353,-0.4618,-1.4982,-0.7270,49.27916150,-122.98128987,1.15999997,
21.1650,0.2965,0.4936,0.0827,0.5276,-1.9994,-3.9993,-0.4618,-1.4982,-0.7270,49.27916150,-122.98128987,1.15999997,
21.2010,0.2129,0.3974,0.0621,0.5276,-1.9994,-3.9993,-0.4618,-1.4982,-0.7270,49.27916150,-122.98128987,1.15999997,
21.2200,0.2129,0.3974,0.0621,0.5276,-1.9994,-3.9993,0.4762,-0.1437,-0.5928,49.27916150,-122.98128987,1.15999997,
21.2220,0.2129,0.3974,0.0621,3.9082,-5.3173,-1.9993,0.4762,-0.1437,-0.5928,49.27916150,-122.98128987,1.15999997,
21.2780,-0.1591,0.9983,0.4316,3.9082,-5.3173,-1.9993,0.4762,-0.1437,-0.5928,49.27916150,-122.98128987,1.15999997,
21.2970,-0.1591,0.9983,0.4316,2.0006,-4.7152,-1.6636,0.4762,-0.1437,-0.5928,49.27916150,-122.98128987,1.15999997,
21.2990,-0.1591,0.9983,0.4316,2.0006,-4.7152,-1.6636,0.1582,-0.9905,-0.0802,49.27916150,-122.98128987,1.15999997,
21.3400,-0.0582,1.0738,0.7824,2.0006,-4.7152,-1.6636,0.1582,-0.9905,-0.0802,49.27916150,-122.98128987,1.15999997,
21.3550,-0.0582,1.0738,0.7824,-0.7674,1.8559,3.1883,0.1582,-0.9905,-0.0802,49.27916150,-122.98128987,1.15999997,
21.3560,-0.0582,1.0738,0.7824,-0.7674,1.8559,3.1883,0.0971,0.0991,-0.4705,49.27916150,-122.98128987,1.15999997,
21.4120,-0.4213,0.9803,0.4649,-0.7674,1.8559,3.1883,0.0971,0.0991,-0.4705,49.27916150,-122.98128987,1.15999997,
21.4290,-0.4213,0.9803,0.4649,-0.7674,1.8559,3.1883,0.7059,-0.2969,-0.1369,49.27916150,-122.98128987,1.15999997,
21.4300,-0.4213,0.9803,0.4649,-0.0215,0.5511,5.0529,0.7059,-0.2969,-0.1369,49.27916150,-122.98128987,1.15999997,
21.4680,0.4996,1.3058,0.0123,-0.0215,0.5511,5.0529,0.7059,-0.2969,-0.1369,49.27916150,-122.98128987,1.15999997,
21.4880,0.4996,1.3058,0.0123,-2.9385,4.1148,-1.5942,0.7059,-0.2969,-0.1369,49.27916150,-122.98128987,1.15999997,
21.4890,0.4996,1.3058,0.0123,-2.9385,4.1148,-1.5942,-0.5099,-0.4878,0.5324,49.27916150,-122.98128987,1.15999997,
21.5450,0.1381,0.8426,-0.1436,-2.9385,4.1148,-1.5942,-0.5099,-0.4878,0.5324,49.27916150,-122.98128987,1.15999997,
21.5630,0.1381,0.8426,-0.1436,-2.9385,4.1148,-1.5942,1.9609,2.0439,-0.4134,49.27916150,-122.98128987,1.15999997,
21.5650,0.1381,0.8426,-0.1436,10.4022,-4.1407,1.9092,1.9609,2.0439,-0.4134,49.27916150,-122.98128987,1.15999997,
21.6000,-0.0342,1.0159,-0.1522,10.4022,-4.1407,1.9092,1.9609,2.0439,-0.4134,49.27916150,-122.98128987,1.15999997,
21.6190,-0.0342,1.0159,-0.1522,10.4022,-4.1407,1.9092,0.9218,0.3941,0.7665,49.27916150,-122.98128987,1.15999997,
21.6200,-0.0342,1.0159,-0.1522,-4.4592,2.8239,-6.0147,0.9218,0.3941,0.7665,49.27916150,-122.98128987,1.15999997,
21.6770,-0.1976,0.9579,-0.1505,-4.4592,2.8239,-6.0147,0.9218,0.3941,0.7665,49.27916150,-122.98128987,1.15999997,
21.6960,-0.1976,0.9579,-0.1505,-4.4592,2.8239,-6.0147,1.7323,0.9253,0.2950,49.27916150,-122.98128987,1.15999997,
21.6960,-0.1976,0.9579,-0.1505,2.9780,-1.7896,2.2689,1.7323,0.9253,0.2950,49.27916150,-122.98128987,1.15999997,
21.7330,-0.2091,0.9023,-0.0736,2.9780,-1.7896,2.2689,1.7323,0.9253,0.2950,49.27916150,-122.98128987,1.15999997,
21.7620,-0.2091,0.9023,-0.0736,2.9780,-1.7896,2.2689,1.2244,0.2626,0.4259,49.27916150,-122.98128987,1.15999997,
21.7620,-0.2091,0.9023,-0.0736,-2.7577,0.1497,-1.1503,1.2244,0.2626,0.4259,49.27916150,-122.98128987,1.15999997,
21.8000,0.0452,0.9577,0.0299,-2.7577,0.1497,-1.1503,1.2244,0.2626,0.4259,49.27916150,-122.98128987,1.15999997,
21.8190,0.0452,0.9577,0.0299,-2.7577,0.1497,-1.1503,0.9802,0.8995,0.4776,49.27916150,-122.98128987,1.15999997,
21.8190,0.0452,0.9577,0.0299,-1.6878,-0.6728,2.2352,0.9802,0.8995,0.4776,49.27916150,-122.98128987,1.15999997,
21.8780,-0.0665,0.9231,-0.0967,-1.6878,-0.6728,2.2352,0.9802,0.8995,0.4776,49.27916150,-122.98128987,1.15999997,
21.8980,-0.0665,0.9231,-0.0967,-1.6878,-0.6728,2.2352,0.7249,1.0480,0.5834,49.27916150,-122.98128987,1.15999997,
21.9000,-0.0665,0.9231,-0.0967,-0.2598,-0.1647,2.5525,0.7249,1.0480,0.5834,49.27916150,-122.98128987,1.15999997,
21.9360,-0.2357,0.9876,-0.0321,-0.2598,-0.1647,2.5525,0.7249,1.0480,0.5834,49.27916150,-122.98128987,1.15999997,
21.9520,-0.2357,0.9876,-0.0321,-0.2598,-0.1647,2.5525,0.7170,0.4946,0.4821,49.27916150,-122.98128987,1.15999997,
21.9540,-0.2357,0.9876,-0.0321,-2.1240,-0.3562,1.6718,0.7170,0.4946,0.4821,49.27916150,-122.98128987,1.15999997,
22.0110,0.0271,1.2163,0.0104,-2.1240,-0.3562,1.6718,0.7170,0.4946,0.4821,49.27916150,-122.98128987,1.15999997,
22.0300,0.0271,1.2163,0.0104,-3.0124,0.9152,2.4953,0.7170,0.4946,0.4821,49.27916150,-122.98128987,1.15999997,
22.0320,0.0271,1.2163,0.0104,-3.0124,0.9152,2.4953,0.2819,0.6456,0.1579,49.27916150,-122.98128987,1.15999997,
22.0680,-0.2200,1.5984,-0.1926,-3.0124,0.9152,2.4953,0.2819,0.6456,0.1579,49.27916150,-122.98128987,1.15999997,
22.0890,-0.2200,1.5984,-0.1926,-1.2257,3.6799,1.6311,0.2819,0.6456,0.1579,49.27916150,-122.98128987,1.15999997,
22.0900,-0.2200,1.5984,-0.1926,-1.2257,3.6799,1.6311,-1.5327,0.4991,-0.6253,49.27916150,-122.98128987,1.15999997,
22.1450,0.0862,1.4323,-0.1236,-1.2257,3.6799,1.6311,-1.5327,0.4991,-0.6253,49.27916150,-122.98128987,1.15999997,
22.1620,0.0862,1.4323,-0.1236,-2.5615,4.6625,-2.0957,-1.5327,0.4991,-0.6253,49.27916150,-122.98128987,1.15999997,
22.1640,0.0862,1.4323,-0.1236,-2.5615,4.6625,-2.0957,-2.9176,0.0054,-0.5743,49.27916150,-122.98128987,1.15999997,
22.2010,0.0239,1.3002,-0.1618,-2.5615,4.6625,-2.0957,-2.9176,0.0054,-0.5743,49.27916150,-122.98128987,1.15999997,
22.2200,0.0239,1.3002,-0.1618,-2.5615,4.6625,-2.0957,-1.9081,-0.5116,-1.1489,49.27916150,-122.98128987,1.15999997,
22.2210,0.0239,1.3002,-0.1618,2.5744,5.2989,-1.7797,-1.9081,-0.5116,-1.1489,49.27916150,-122.98128987,1.15999997,
22.2780,-0.1792,0.9988,-0.1729,2.5744,5.2989,-1.7797,-1.9081,-0.5116,-1.1489,49.27916150,-122.98128987,1.15999997,
22.2970,-0.1792,0.9988,-0.1729,2.5744,5.2989,-1.7797,-1.7945,-2.3896,-0.8926,49.27916150,-122.98128987,1.15999997,
22.2980,-0.1792,0.9988,-0.1729,-1.2050,1.6310,-4.5881,-1.7945,-2.3896,-0.8926,49.27916150,-122.98128987,1.15999997,
22.3370,0.2174,0.5421,0.0170,-1.2050,1.6310,-4.5881,-1.7945,-2.3896,-0.8926,49.27916150,-122.98128987,1.15999997,
22.3530,0.2174,0.5421,0.0170,-1.2050,1.6310,-4.5881,-1.1149,-1.9389,-0.6584,49.27916150,-122.98128987,1.15999997,
22.3540,0.2174,0.5421,0.0170,-0.3254,-0.7263,-4.4589,-1.1149,-1.9389,-0.6584,49.27916150,-122.98128987,1.15999997,
22.4110,0.3184,0.2865,0.1201,-0.3254,-0.7263,-4.4589,-1.1149,-1.9389,-0.6584,49.27916150,-122.98128987,1.15999997,
22.4290,0.3184,0.2865,0.1201,3.8870,-5.5185,-2.2711,-1.1149,-1.9389,-0.6584,49.27916150,-122.98128987,1.15999997,
22.4300,0.3184,0.2865,0.1201,3.8870,-5.5185,-2.2711,0.1976,-0.0079,-0.6213,49.27916150,-122.98128987,1.15999997,
22.4670,-0.0466,0.6671,0.1626,3.8870,-5.5185,-2.2711,0.1976,-0.0079,-0.6213,49.27916150,-122.98128987,1.15999997,
22.4870,-0.0466,0.6671,0.1626,3.4368,-5.8694,-1.6782,0.1976,-0.0079,-0.6213,49.27916150,-122.98128987,1.15999997,
22.4890,-0.0466,0.6671,0.1626,3.4368,-5.8694,-1.6782,0.4732,-0.4837,-0.2441,49.27916150,-122.98128987,1.15999997,
22.5440,-0.3634,1.3475,0.9518,3.4368,-5.8694,-1.6782,0.4732,-0.4837,-0.2441,49.27916150,-122.98128987,1.15999997,
22.5620,-0.3634,1.3475,0.9518,-1.2815,-0.4825,0.8754,0.4732,-0.4837,-0.2441,49.27916150,-122.98128987,1.15999997,
22.5630,-0.3634,1.3475,0.9518,-1.2815,-0.4825,0.8754,-0.1307,-0.6177,-0.1891,49.27916150,-122.98128987,1.15999997,
22.6060,0.1223,0.6577,0.5432,-1.2815,-0.4825,0.8754,-0.1307,-0.6177,-0.1891,49.27916150,-122.98128987,1.15999997,
22.6190,0.1223,0.6577,0.5432,-0.9755,3.2182,7.1263,-0.1307,-0.6177,-0.1891,49.27915159,-122.98131264,1.19000006,
22.6210,0.1223,0.6577,0.5432,-0.9755,3.2182,7.1263,0.7018,0.6524,-0.4314,49.27915159,-122.98131264,1.19000006,
22.6770,-0.7052,2.0363,0.1283,-0.9755,3.2182,7.1263,0.7018,0.6524,-0.4314,49.27915159,-122.98131264,1.19000006,
22.6960,-0.7052,2.0363,0.1283,1.1732,-3.7975,1.5431,0.7018,0.6524,-0.4314,49.27915159,-122.98131264,1.19000006,
22.6970,-0.7052,2.0363,0.1283,1.1732,-3.7975,1.5431,0.1053,-1.3935,0.5553,49.27915159,-122.98131264,1.19000006,
22.7340,1.2800,0.0003,0.2050,1.1732,-3.7975,1.5431,0.1053,-1.3935,0.5553,49.27915159,-122.98131264,1.19000006,
22.7630,1.2800,0.0003,0.2050,1.1732,-3.7975,1.5431,1.4731,1.6896,-0.3924,49.27915159,-122.98131264,1.19000006,
22.7640,1.2800,0.0003,0.2050,-1.0289,7.8300,-3.4271,1.4731,1.6896,-0.3924,49.27915159,-122.98131264,1.19000006,
22.8000,-0.5026,1.5191,-0.7094,-1.0289,7.8300,-3.4271,1.4731,1.6896,-0.3924,49.27915159,-122.98131264,1.19000006,
22.8200,-0.5026,1.5191,-0.7094,-1.0289,7.8300,-3.4271,1.0584,0.7990,0.6148,49.27915159,-122.98131264,1.19000006,
22.8220,-0.5026,1.5191,-0.7094,6.9524,-5.2821,0.9191,1.0584,0.7990,0.6148,49.27915159,-122.98131264,1.19000006,
22.8770,-0.0711,0.7248,-0.0022,6.9524,-5.2821,0.9191,1.0584,0.7990,0.6148,49.27915159,-122.98131264,1.19000006,
22.8970,-0.0711,0.7248,-0.0022,-1.2299,2.3123,-2.7860,1.0584,0.7990,0.6148,49.27915159,-122.98131264,1.19000006,
22.8980,-0.0711,0.7248,-0.0022,-1.2299,2.3123,-2.7860,1.7487,0.8114,0.2964,49.27915159,-122.98131264,1.19000006,
22.9340,-0.2210,0.9811,-0.1118,-1.2299,2.3123,-2.7860,1.7487,0.8114,0.2964,49.27915159,-122.98131264,1.19000006,
22.9530,-0.2210,0.9811,-0.1118,-1.2299,2.3123,-2.7860,1.2937,0.3347,0.3567,49.27915159,-122.98131264,1.19000006,
22.9540,-0.2210,0.9811,-0.1118,-2.0786,-1.2075,-0.1815,1.2937,0.3347,0.3567,49.27915159,-122.98131264,1.19000006,
23.0100,-0.0409,0.9033,0.0190,-2.0786,-1.2075,-0.1815,1.2937,0.3347,0.3567,49.27915159,-122.98131264,1.19000006,
23.0290,-0.0409,0.9033,0.0190,-1.7093,-0.5436,2.1631,1.2937,0.3347,0.3567,49.27915159,-122.98131264,1.19000006,
23.0310,-0.0409,0.9033,0.0190,-1.7093,-0.5436,2.1631,0.9165,0.9274,0.4738,49.27915159,-122.98131264,1.19000006,
23.0670,0.0813,0.9558,-0.0004,-1.7093,-0.5436,2.1631,0.9165,0.9274,0.4738,49.27915159,-122.98131264,1.19000006,
23.0880,0.0813,0.9558,-0.0004,-1.7093,-0.5436,2.1631,0.6882,1.1379,0.5673,49.27915159,-122.98131264,1.19000006,
23.0890,0.0813,0.9558,-0.0004,-0.1909,-0.3650,1.8836,0.6882,1.1379,0.5673,49.27915159,-122.98131264,1.19000006,
23.1430,-0.2892,0.9559,-0.0747,-0.1909,-0.3650,1.8836,0.6882,1.1379,0.5673,49.27915159,-122.98131264,1.19000006,
23.1620,-0.2892,0.9559,-0.0747,-1.3027,-0.1213,2.8338,0.6882,1.1379,0.5673,49.27915159,-122.98131264,1.19000006,
23.1630,-0.2892,0.9559,-0.0747,-1.3027,-0.1213,2.8338,0.7102,1.0210,0.5349,49.27915159,-122.98131264,1.19000006,
23.2000,-0.1416,1.2168,0.0159,-1.3027,-0.1213,2.8338,0.7102,1.0210,0.5349,49.27915159,-122.98131264,1.19000006,
23.2190,-0.1416,1.2168,0.0159,-3.6562,0.4781,2.0972,0.7102,1.0210,0.5349,49.27915159,-122.98131264,1.19000006,
23.2210,-0.1416,1.2168,0.0159,-3.6562,0.4781,2.0972,0.1983,0.6440,0.0615,49.27915159,-122.98131264,1.19000006,
23.2760,-0.1799,1.6221,-0.1941,-3.6562,0.4781,2.0972,0.1983,0.6440,0.0615,49.27915159,-122.98131264,1.19000006,
23.2950,-0.1799,1.6221,-0.1941,-3.6562,0.4781,2.0972,-2.0258,0.4976,-0.7377,49.27915159,-122.98131264,1.19000006,
23.2960,-0.1799,1.6221,-0.1941,-2.4480,3.7497,1.4963,-2.0258,0.4976,-0.7377,49.27915159,-122.98131264,1.19000006,
23.3380,0.2360,1.5491,-0.0405,-2.4480,3.7497,1.4963,-2.0258,0.4976,-0.7377,49.27915159,-122.98131264,1.19000006,
23.3530,0.2360,1.5491,-0.0405,-2.4480,3.7497,1.4963,-2.8283,0.1321,-0.4989,49.27915159,-122.98131264,1.19000006,
23.3540,0.2360,1.5491,-0.0405,-1.7263,4.7794,-2.7674,-2.8283,0.1321,-0.4989,49.27915159,-122.98131264,1.19000006,
23.4090,-0.1591,1.2353,-0.2415,-1.7263,4.7794,-2.7674,-2.8283,0.1321,-0.4989,49.27915159,-122.98131264,1.19000006,
23.4280,-0.1591,1.2353,-0.2415,-1.7263,4.7794,-2.7674,-2.0141,-1.0580,-1.1318,49.27915159,-122.98131264,1.19000006,
23.4300,-0.1591,1.2353,-0.2415,3.1930,6.0396,-1.7964,-2.0141,-1.0580,-1.1318,49.27915159,-122.98131264,1.19000006,
23.4660,-0.1233,0.9236,-0.1714,3.1930,6.0396,-1.7964,-2.0141,-1.0580,-1.1318,49.27915159,-122.98131264,1.19000006,
23.4860,-0.1233,0.9236,-0.1714,3.1930,6.0396,-1.7964,-1.7582,-2.4171,-0.7480,49.27915159,-122.98131264,1.19000006,
23.4870,-0.1233,0.9236,-0.1714,-2.5588,1.5044,-5.2912,-1.7582,-2.4171,-0.7480,49.27915159,-122.98131264,1.19000006,
23.5430,0.4096,0.4204,0.0936,-2.5588,1.5044,-5.2912,-1.7582,-2.4171,-0.7480,49.27915159,-122.98131264,1.19000006,
23.5620,0.4096,0.4204,0.0936,-2.5588,1.5044,-5.2912,-0.6518,-1.3240,-0.8850,49.27915159,-122.98131264,1.19000006,
23.5630,0.4096,0.4204,0.0936,1.0470,-1.8653,-4.3476,-0.6518,-1.3240,-0.8850,49.27915159,-122.98131264,1.19000006,
23.5990,0.1927,0.2852,0.0495,1.0470,-1.8653,-4.3476,-0.6518,-1.3240,-0.8850,49.27915159,-122.98131264,1.19000006,
23.6180,0.1927,0.2852,0.0495,5.1697,-6.2422,-1.4285,-0.6518,-1.3240,-0.8850,49.27915159,-122.98131264,1.19000006,
23.6190,0.1927,0.2852,0.0495,5.1697,-6.2422,-1.4285,0.7718,0.1593,-0.8173,49.27915159,-122.98131264,1.19000006,
23.6750,-0.2893,0.8450,0.3251,5.1697,-6.2422,-1.4285,0.7718,0.1593,-0.8173,49.27915159,-122.98131264,1.19000006,
23.6930,-0.2893,0.8450,0.3251,5.1697,-6.2422,-1.4285,0.4917,-1.6083,0.2116,49.27915159,-122.98131264,1.19000006,
23.6940,-0.2893,0.8450,0.3251,1.5599,-5.9764,-2.1170,0.4917,-1.6083,0.2116,49.27915159,-122.98131264,1.19000006,
23.7320,-0.0488,1.4014,0.9944,1.5599,-5.9764,-2.1170,0.4917,-1.6083,0.2116,49.27915159,-122.98131264,1.19000006,
