time,gFx,gFy,gFz,ax,ay,az,wx,wy,wz,p,Bx,By,Bz,Azimuth,Pitch,Roll,Latitude,Longitude,Speed (m/s)
0.014,0.1373,0.3053,0.8995,4.3918,-3.4744,1.687,-0.1321,-0.3281,0.277,856.5562,11.1,-37.38,-27.3,-151.14,-18.55,-8.679,49.17048294,-121.6930715,0
0.015,0.1373,0.3053,0.8995,4.3918,-3.4744,1.687,-0.1321,-0.3281,0.277,856.5562,11.1,-37.32,-27.36,-151.059,-18.55,-8.679,49.17048294,-121.6930715,0
0.016,0.1373,0.3053,0.8995,4.3918,-3.4744,1.687,0.0245,0.2386,-0.0543,856.5562,11.1,-37.32,-27.36,-151.059,-18.55,-8.679,49.17048294,-121.6930715,0
0.017,0.1373,0.3053,0.8995,2.5319,-3.4622,1.5276,0.0245,0.2386,-0.0543,856.5562,11.1,-37.32,-27.36,-151.059,-18.55,-8.679,49.17048294,-121.6930715,0
0.051,0.1373,0.3053,0.8995,2.5319,-3.4622,1.5276,0.0245,0.2386,-0.0543,856.7319,11.1,-37.32,-27.36,-151.059,-18.55,-8.679,49.17048294,-121.6930715,0
0.052,0.1373,0.3053,0.8995,2.5319,-3.4622,1.5276,0.0245,0.2386,-0.0543,856.7319,11.1,-37.32,-27.36,-151.059,-18.55,-8.679,49.17048294,-121.6930715,0
0.075,0.1373,0.2907,0.7617,2.5319,-3.4622,1.5276,0.0245,0.2386,-0.0543,856.7319,11.1,-37.32,-27.36,-148.908,-20.584,-10.218,49.17048294,-121.6930715,0
0.076,0.1373,0.2907,0.7617,2.5319,-3.4622,1.5276,0.0245,0.2386,-0.0543,856.7319,11.04,-37.2,-27.36,-148.89,-20.584,-10.218,49.17048294,-121.6930715,0
0.077,0.1373,0.2907,0.7617,2.5319,-3.4622,1.5276,0.1236,-0.1854,0.3462,856.7319,11.04,-37.2,-27.36,-148.89,-20.584,-10.218,49.17048294,-121.6930715,0
0.078,0.1373,0.2907,0.7617,2.5357,-3.4689,0.0588,0.1236,-0.1854,0.3462,856.7319,11.04,-37.2,-27.36,-148.89,-20.584,-10.218,49.17048294,-121.6930715,0
0.134,0.2521,0.3366,0.8286,2.5357,-3.4689,0.0588,0.1236,-0.1854,0.3462,856.7319,11.04,-37.2,-27.36,-144.896,-21.237,-16.923,49.17048294,-121.6930715,0
0.135,0.2521,0.3366,0.8286,2.5357,-3.4689,0.0588,0.1236,-0.1854,0.3462,856.7319,10.98,-37.14,-27.36,-144.916,-21.237,-16.923,49.17048294,-121.6930715,0
0.136,0.2521,0.3366,0.8286,2.5357,-3.4689,0.0588,-0.1406,-0.44,0.6296,856.7319,10.98,-37.14,-27.36,-144.916,-21.237,-16.923,49.17048294,-121.6930715,0
0.138,0.2521,0.3366,0.8286,3.0707,-2.9491,0.5855,-0.1406,-0.44,0.6296,856.7319,10.98,-37.14,-27.36,-144.916,-21.237,-16.923,49.17048294,-121.6930715,0
0.195,0.2218,0.2965,0.6957,3.0707,-2.9491,0.5855,-0.1406,-0.44,0.6296,856.7319,10.98,-37.14,-27.36,-144.022,-22.101,-17.685,49.17048294,-121.6930715,0
0.196,0.2218,0.2965,0.6957,3.0707,-2.9491,0.5855,-0.1406,-0.44,0.6296,856.7319,10.92,-37.08,-27.42,-143.99,-22.101,-17.685,49.17048294,-121.6930715,0
0.197,0.2218,0.2965,0.6957,3.0707,-2.9491,0.5855,-0.4485,0.6977,0.5678,856.7319,10.92,-37.08,-27.42,-143.99,-22.101,-17.685,49.17048294,-121.6930715,0
0.198,0.2218,0.2965,0.6957,2.2102,-3.1454,-0.8988,-0.4485,0.6977,0.5678,856.7319,10.92,-37.08,-27.42,-143.99,-22.101,-17.685,49.17048294,-121.6930715,0
0.231,0.2218,0.2965,0.6957,2.2102,-3.1454,-0.8988,-0.4485,0.6977,0.5678,856.5696,10.92,-37.08,-27.42,-143.99,-22.101,-17.685,49.17048294,-121.6930715,0
0.232,0.2218,0.2965,0.6957,2.2102,-3.1454,-0.8988,-0.4485,0.6977,0.5678,856.5696,10.92,-37.08,-27.42,-143.99,-22.101,-17.685,49.17048294,-121.6930715,0
0.253,0.2453,0.1631,1.1492,2.2102,-3.1454,-0.8988,-0.4485,0.6977,0.5678,856.5696,10.92,-37.08,-27.42,-153.812,-7.904,-12.049,49.17048294,-121.6930715,0
0.255,0.2453,0.1631,1.1492,2.2102,-3.1454,-0.8988,-0.4485,0.6977,0.5678,856.5696,10.8,-37.02,-27.42,-153.932,-7.904,-12.049,49.17048294,-121.6930715,0
0.256,0.2453,0.1631,1.1492,2.2102,-3.1454,-0.8988,-1.2155,0.6807,1.8813,856.5696,10.8,-37.02,-27.42,-153.932,-7.904,-12.049,49.17048294,-121.6930715,0
0.257,0.2453,0.1631,1.1492,2.2662,-3.8993,3.1424,-1.2155,0.6807,1.8813,856.5696,10.8,-37.02,-27.42,-153.932,-7.904,-12.049,49.17048294,-121.6930715,0
0.315,0.2218,0.2242,0.8829,2.2662,-3.8993,3.1424,-1.2155,0.6807,1.8813,856.5696,10.8,-37.02,-27.42,-150.412,-13.837,-14.104,49.17048294,-121.6930715,0
0.316,0.2218,0.2242,0.8829,2.2662,-3.8993,3.1424,-1.2155,0.6807,1.8813,856.5696,10.68,-36.84,-27.48,-150.398,-13.837,-14.104,49.17048294,-121.6930715,0
0.317,0.2218,0.2242,0.8829,2.2662,-3.8993,3.1424,-0.082,-0.0692,0.9918,856.5696,10.68,-36.84,-27.48,-150.398,-13.837,-14.104,49.17048294,-121.6930715,0
0.318,0.2218,0.2242,0.8829,1.9517,-2.7475,0.1862,-0.082,-0.0692,0.9918,856.5696,10.68,-36.84,-27.48,-150.398,-13.837,-14.104,49.17048294,-121.6930715,0
0.374,0.3792,0.1763,0.9078,1.9517,-2.7475,0.1862,-0.082,-0.0692,0.9918,856.5696,10.68,-36.84,-27.48,-147.837,-10.161,-22.669,49.17047704,-121.6930812,0
0.375,0.3792,0.1763,0.9078,1.9517,-2.7475,0.1862,-0.082,-0.0692,0.9918,856.5696,10.44,-36.66,-27.6,-147.89,-10.161,-22.669,49.17047704,-121.6930812,0
0.376,0.3792,0.1763,0.9078,1.9517,-2.7475,0.1862,-0.8224,-0.7702,0.327,856.5696,10.44,-36.66,-27.6,-147.89,-10.161,-22.669,49.17047704,-121.6930812,0
0.377,0.3792,0.1763,0.9078,2.946,-2.9764,0.3262,-0.8224,-0.7702,0.327,856.5696,10.44,-36.66,-27.6,-147.89,-10.161,-22.669,49.17047704,-121.6930812,0
0.41,0.3792,0.1763,0.9078,2.946,-2.9764,0.3262,-0.8224,-0.7702,0.327,856.5337,10.44,-36.66,-27.6,-147.89,-10.161,-22.669,49.17047704,-121.6930812,0
0.411,0.3792,0.1763,0.9078,2.946,-2.9764,0.3262,-0.8224,-0.7702,0.327,856.5337,10.44,-36.66,-27.6,-147.89,-10.161,-22.669,49.17047704,-121.6930812,0
0.433,0.3753,0.1045,1.1037,2.946,-2.9764,0.3262,-0.8224,-0.7702,0.327,856.5337,10.44,-36.66,-27.6,-151.439,-5.122,-18.778,49.17047704,-121.6930812,0
0.434,0.3753,0.1045,1.1037,2.946,-2.9764,0.3262,-0.8224,-0.7702,0.327,856.5337,10.02,-36.12,-27.84,-151.452,-5.122,-18.778,49.17047704,-121.6930812,0
0.435,0.3753,0.1045,1.1037,2.946,-2.9764,0.3262,-1.2112,1.1079,0.9012,856.5337,10.02,-36.12,-27.84,-151.452,-5.122,-18.778,49.17047704,-121.6930812,0
0.436,0.3753,0.1045,1.1037,2.3405,-3.0861,2.0136,-1.2112,1.1079,0.9012,856.5337,10.02,-36.12,-27.84,-151.452,-5.122,-18.778,49.17047704,-121.6930812,0
0.494,0.2526,-0.0792,1.1897,2.3405,-3.0861,2.0136,-1.2112,1.1079,0.9012,856.5337,10.02,-36.12,-27.84,-157.53,3.727,-11.988,49.17047704,-121.6930812,0
0.495,0.2526,-0.0792,1.1897,2.3405,-3.0861,2.0136,-1.2112,1.1079,0.9012,856.5337,9.54,-35.4,-28.2,-157.675,3.727,-11.988,49.17047704,-121.6930812,0
0.496,0.2526,-0.0792,1.1897,2.3405,-3.0861,2.0136,-1.0237,0.9705,1.5713,856.5337,9.54,-35.4,-28.2,-157.675,3.727,-11.988,49.17047704,-121.6930812,0
0.497,0.2526,-0.0792,1.1897,1.9065,-4.1702,2.4761,-1.0237,0.9705,1.5713,856.5337,9.54,-35.4,-28.2,-157.675,3.727,-11.988,49.17047704,-121.6930812,0
0.553,0.2375,-0.1926,1.369,1.9065,-4.1702,2.4761,-1.0237,0.9705,1.5713,856.5337,9.54,-35.4,-28.2,-159.804,7.891,-9.84,49.17047704,-121.6930812,0
0.554,0.2375,-0.1926,1.369,1.9065,-4.1702,2.4761,-1.0237,0.9705,1.5713,856.5337,9.12,-34.32,-28.74,-159.749,7.891,-9.84,49.17047704,-121.6930812,0
0.555,0.2375,-0.1926,1.369,1.9065,-4.1702,2.4761,-0.4559,1.0962,1.4424,856.5337,9.12,-34.32,-28.74,-159.749,7.891,-9.84,49.17047704,-121.6930812,0
0.557,0.2375,-0.1926,1.369,1.7439,-4.4077,3.9573,-0.4559,1.0962,1.4424,856.5337,9.12,-34.32,-28.74,-159.749,7.891,-9.84,49.17047704,-121.6930812,0
0.59,0.2375,-0.1926,1.369,1.7439,-4.4077,3.9573,-0.4559,1.0962,1.4424,856.5789,9.12,-34.32,-28.74,-159.749,7.891,-9.84,49.17047704,-121.6930812,0
0.591,0.2375,-0.1926,1.369,1.7439,-4.4077,3.9573,-0.4559,1.0962,1.4424,856.5789,9.12,-34.32,-28.74,-159.749,7.891,-9.84,49.17047704,-121.6930812,0
0.613,-0.0958,-0.1154,1.2635,1.7439,-4.4077,3.9573,-0.4559,1.0962,1.4424,856.5789,9.12,-34.32,-28.74,-169.359,5.203,4.335,49.17047704,-121.6930812,0
0.614,-0.0958,-0.1154,1.2635,1.7439,-4.4077,3.9573,-0.4559,1.0962,1.4424,856.5789,8.82,-33.06,-29.28,-169.534,5.203,4.335,49.17047704,-121.6930812,0
0.617,-0.0958,-0.1154,1.2635,1.7439,-4.4077,3.9573,0.6274,1.9175,1.9867,856.5789,8.82,-33.06,-29.28,-169.534,5.203,4.335,49.17047704,-121.6930812,0
0.618,-0.0958,-0.1154,1.2635,-1.1082,-3.2572,2.8104,0.6274,1.9175,1.9867,856.5789,8.82,-33.06,-29.28,-169.534,5.203,4.335,49.17047704,-121.6930812,0
0.674,0.0904,0.2657,0.6146,-1.1082,-3.2572,2.8104,0.6274,1.9175,1.9867,856.5789,8.82,-33.06,-29.28,-146.347,-23.16,-8.367,49.17047704,-121.6930812,0
0.675,0.0904,0.2657,0.6146,-1.1082,-3.2572,2.8104,0.6274,1.9175,1.9867,856.5789,8.58,-31.8,-30,-144.551,-23.16,-8.367,49.17047704,-121.6930812,0
0.676,0.0904,0.2657,0.6146,-1.1082,-3.2572,2.8104,0.9001,-0.8096,0.6083,856.5789,8.58,-31.8,-30,-144.551,-23.16,-8.367,49.17047704,-121.6930812,0
0.677,0.0904,0.2657,0.6146,1.6327,0.0354,-3.4115,0.9001,-0.8096,0.6083,856.5789,8.58,-31.8,-30,-144.551,-23.16,-8.367,49.17047704,-121.6930812,0
0.733,-0.1226,-0.2478,1.1775,1.6327,0.0354,-3.4115,0.9001,-0.8096,0.6083,856.5789,8.58,-31.8,-30,-171.75,11.822,5.946,49.17047704,-121.6930812,0
0.734,-0.1226,-0.2478,1.1775,1.6327,0.0354,-3.4115,0.9001,-0.8096,0.6083,856.5789,8.46,-30.48,-30.72,-171.792,11.822,5.946,49.17047704,-121.6930812,0
0.735,-0.1226,-0.2478,1.1775,1.6327,0.0354,-3.4115,-0.2301,-1.2634,1.0216,856.5789,8.46,-30.48,-30.72,-171.792,11.822,5.946,49.17047704,-121.6930812,0
0.736,-0.1226,-0.2478,1.1775,-1.2564,-4.8838,2.0453,-0.2301,-1.2634,1.0216,856.5789,8.46,-30.48,-30.72,-171.792,11.822,5.946,49.17047704,-121.6930812,0
0.769,-0.1226,-0.2478,1.1775,-1.2564,-4.8838,2.0453,-0.2301,-1.2634,1.0216,856.5706,8.46,-30.48,-30.72,-171.792,11.822,5.946,49.17047704,-121.6930812,0
0.77,-0.1226,-0.2478,1.1775,-1.2564,-4.8838,2.0453,-0.2301,-1.2634,1.0216,856.5706,8.46,-30.48,-30.72,-171.792,11.822,5.946,49.17047704,-121.6930812,0
0.792,0.4617,-0.4071,0.9005,-1.2564,-4.8838,2.0453,-0.2301,-1.2634,1.0216,856.5706,8.46,-30.48,-30.72,-149.814,21.914,-27.148,49.17047704,-121.6930812,0
0.793,0.4617,-0.4071,0.9005,-1.2564,-4.8838,2.0453,-0.2301,-1.2634,1.0216,856.5706,8.34,-29.16,-31.44,-148.893,21.914,-27.148,49.17047704,-121.6930812,0
0.794,0.4617,-0.4071,0.9005,-1.2564,-4.8838,2.0453,-1.55,0.4197,0.8543,856.5706,8.34,-29.16,-31.44,-148.893,21.914,-27.148,49.17047704,-121.6930812,0
0.795,0.4617,-0.4071,0.9005,3.8078,-5.8718,-0.7731,-1.55,0.4197,0.8543,856.5706,8.34,-29.16,-31.44,-148.893,21.914,-27.148,49.17047704,-121.6930812,0
0.852,0.191,-0.5498,1.0886,3.8078,-5.8718,-0.7731,-1.55,0.4197,0.8543,856.5706,8.34,-29.16,-31.44,-160.828,26.447,-9.954,49.17047704,-121.6930812,0
0.853,0.191,-0.5498,1.0886,3.8078,-5.8718,-0.7731,-1.55,0.4197,0.8543,856.5706,8.22,-27.78,-32.16,-160.399,26.447,-9.954,49.17047704,-121.6930812,0
0.854,0.191,-0.5498,1.0886,3.8078,-5.8718,-0.7731,-3.3875,0.9044,-0.1161,856.5706,8.22,-27.78,-32.16,-160.399,26.447,-9.954,49.17047704,-121.6930812,0
0.855,0.191,-0.5498,1.0886,1.6284,-5.9382,0.8798,-3.3875,0.9044,-0.1161,856.5706,8.22,-27.78,-32.16,-160.399,26.447,-9.954,49.17047704,-121.6930812,0
0.912,-0.0567,-0.3602,0.8731,1.6284,-5.9382,0.8798,-3.3875,0.9044,-0.1161,856.5706,8.22,-27.78,-32.16,-170.877,22.375,3.714,49.17047704,-121.6930812,0
0.913,-0.0567,-0.3602,0.8731,1.6284,-5.9382,0.8798,-3.3875,0.9044,-0.1161,856.5706,8.22,-25.68,-33,-170.562,22.375,3.714,49.17047704,-121.6930812,0
0.914,-0.0567,-0.3602,0.8731,1.6284,-5.9382,0.8798,-1.4914,0.0405,-0.3228,856.5706,8.22,-25.68,-33,-170.562,22.375,3.714,49.17047704,-121.6930812,0
0.915,-0.0567,-0.3602,0.8731,-0.339,-2.1985,-1.1572,-1.4914,0.0405,-0.3228,856.5706,8.22,-25.68,-33,-170.562,22.375,3.714,49.17047704,-121.6930812,0
0.949,-0.0567,-0.3602,0.8731,-0.339,-2.1985,-1.1572,-1.4914,0.0405,-0.3228,856.4763,8.22,-25.68,-33,-170.562,22.375,3.714,49.17047704,-121.6930812,0
0.95,-0.0567,-0.3602,0.8731,-0.339,-2.1985,-1.1572,-1.4914,0.0405,-0.3228,856.4763,8.22,-25.68,-33,-170.562,22.375,3.714,49.17047704,-121.6930812,0
0.972,-0.0733,-0.4149,0.9249,-0.339,-2.1985,-1.1572,-1.4914,0.0405,-0.3228,856.4763,8.22,-25.68,-33,-171.444,24.094,4.531,49.17047704,-121.6930812,0
0.973,-0.0733,-0.4149,0.9249,-0.339,-2.1985,-1.1572,-1.4914,0.0405,-0.3228,856.4763,8.4,-23.1,-33.66,-170.741,24.094,4.531,49.17047704,-121.6930812,0
0.974,-0.0733,-0.4149,0.9249,-0.339,-2.1985,-1.1572,-1.5851,-1.142,-0.4048,856.4763,8.4,-23.1,-33.66,-170.741,24.094,4.531,49.17047704,-121.6930812,0
0.975,-0.0733,-0.4149,0.9249,-0.7806,-1.8858,-0.4972,-1.5851,-1.142,-0.4048,856.4763,8.4,-23.1,-33.66,-170.741,24.094,4.531,49.17047704,-121.6930812,0
1.032,-0.1735,-0.6558,0.6669,-0.7806,-1.8858,-0.4972,-1.5851,-1.142,-0.4048,856.4763,8.4,-23.1,-33.66,179.516,43.581,14.579,49.17047704,-121.6930812,0
1.033,-0.1735,-0.6558,0.6669,-0.7806,-1.8858,-0.4972,-1.5851,-1.142,-0.4048,856.4763,8.28,-20.22,-34.32,179.08,43.581,14.579,49.17047704,-121.6930812,0
1.034,-0.1735,-0.6558,0.6669,-0.7806,-1.8858,-0.4972,-1.7502,0.424,-0.3888,856.4763,8.28,-20.22,-34.32,179.08,43.581,14.579,49.17047704,-121.6930812,0
1.035,-0.1735,-0.6558,0.6669,-2.1242,-3.2677,-2.7387,-1.7502,0.424,-0.3888,856.4763,8.28,-20.22,-34.32,179.08,43.581,14.579,49.17047704,-121.6930812,0
1.092,0.148,-0.7594,0.7597,-2.1242,-3.2677,-2.7387,-1.7502,0.424,-0.3888,856.4763,8.28,-20.22,-34.32,-158.299,44.452,-11.027,49.17047704,-121.6930812,0
1.093,0.148,-0.7594,0.7597,-2.1242,-3.2677,-2.7387,-1.7502,0.424,-0.3888,856.4763,8.1,-17.28,-34.98,-157.47,44.452,-11.027,49.17047704,-121.6930812,0
1.094,0.148,-0.7594,0.7597,-2.1242,-3.2677,-2.7387,-1.6576,0.7702,-0.3814,856.4763,8.1,-17.28,-34.98,-157.47,44.452,-11.027,49.17047704,-121.6930812,0
1.095,0.148,-0.7594,0.7597,1.2272,-3.2062,-1.3966,-1.6576,0.7702,-0.3814,856.4763,8.1,-17.28,-34.98,-157.47,44.452,-11.027,49.17047704,-121.6930812,0
1.128,0.148,-0.7594,0.7597,1.2272,-3.2062,-1.3966,-1.6576,0.7702,-0.3814,856.6826,8.1,-17.28,-34.98,-157.47,44.452,-11.027,49.17047704,-121.6930812,0
1.129,0.148,-0.7594,0.7597,1.2272,-3.2062,-1.3966,-1.6576,0.7702,-0.3814,856.6826,8.1,-17.28,-34.98,-157.47,44.452,-11.027,49.17047704,-121.6930812,0
1.152,-0.2169,-0.5756,0.4021,1.2272,-3.2062,-1.3966,-1.6576,0.7702,-0.3814,856.6826,8.1,-17.28,-34.98,165.943,51.563,28.35,49.17047704,-121.6930812,0
1.153,-0.2169,-0.5756,0.4021,1.2272,-3.2062,-1.3966,-1.6576,0.7702,-0.3814,856.6826,7.98,-13.92,-35.58,164.724,51.563,28.35,49.17047704,-121.6930812,0
1.154,-0.2169,-0.5756,0.4021,1.2272,-3.2062,-1.3966,-0.8959,0.8671,-0.6168,856.6826,7.98,-13.92,-35.58,164.724,51.563,28.35,49.17047704,-121.6930812,0
1.155,-0.2169,-0.5756,0.4021,-2.1607,-0.5415,-4.436,-0.8959,0.8671,-0.6168,856.6826,7.98,-13.92,-35.58,164.724,51.563,28.35,49.17047704,-121.6930812,0
1.211,-0.1915,-0.2356,0.5242,-2.1607,-0.5415,-4.436,-0.8959,0.8671,-0.6168,856.6826,7.98,-13.92,-35.58,170.053,22.884,20.071,49.17047704,-121.6930812,0
1.212,-0.1915,-0.2356,0.5242,-2.1607,-0.5415,-4.436,-0.8959,0.8671,-0.6168,856.6826,7.92,-10.44,-36.12,168.268,22.884,20.071,49.17047704,-121.6930812,0
1.213,-0.1915,-0.2356,0.5242,-2.1607,-0.5415,-4.436,-0.2983,2.203,-0.2439,856.6826,7.92,-10.44,-36.12,168.268,22.884,20.071,49.17047704,-121.6930812,0
1.214,-0.1915,-0.2356,0.5242,-1.5086,3.3592,-2.857,-0.2983,2.203,-0.2439,856.6826,7.92,-10.44,-36.12,168.268,22.884,20.071,49.17047704,-121.6930812,0
1.271,-0.1505,-0.5322,-0.0177,-1.5086,3.3592,-2.857,-0.2983,2.203,-0.2439,856.6826,7.92,-10.44,-36.12,99.833,74.107,96.69,49.17047704,-121.6930812,0
1.272,-0.1505,-0.5322,-0.0177,-1.5086,3.3592,-2.857,-0.2983,2.203,-0.2439,856.6826,7.98,-6.84,-36.72,98.189,74.107,96.69,49.17047704,-121.6930812,0
1.275,-0.1505,-0.5322,-0.0177,-1.5086,3.3592,-2.857,0.4112,4.6797,-0.4868,856.6826,7.98,-6.84,-36.72,98.189,74.107,96.69,49.17047704,-121.6930812,0
1.276,-0.1505,-0.5322,-0.0177,0.3262,0.4036,-8.0059,0.4112,4.6797,-0.4868,856.6826,7.98,-6.84,-36.72,98.189,74.107,96.69,49.17047704,-121.6930812,0
1.308,-0.1505,-0.5322,-0.0177,0.3262,0.4036,-8.0059,0.4112,4.6797,-0.4868,856.6436,7.98,-6.84,-36.72,98.189,74.107,96.69,49.17047704,-121.6930812,0
1.31,-0.1505,-0.5322,-0.0177,0.3262,0.4036,-8.0059,0.4112,4.6797,-0.4868,856.6436,7.98,-6.84,-36.72,98.189,74.107,96.69,49.17047704,-121.6930812,0
1.331,-0.1026,-0.2644,0.748,0.3262,0.4036,-8.0059,0.4112,4.6797,-0.4868,856.6436,7.98,-6.84,-36.72,-171.202,19.3,7.811,49.17047704,-121.6930812,0
1.332,-0.1026,-0.2644,0.748,0.3262,0.4036,-8.0059,0.4112,4.6797,-0.4868,856.6436,9.18,-3.36,-37.2,-165.629,19.3,7.811,49.17047704,-121.6930812,0
1.333,-0.1026,-0.2644,0.748,0.3262,0.4036,-8.0059,-0.7862,1.9356,-0.9651,856.6436,9.18,-3.36,-37.2,-165.629,19.3,7.811,49.17047704,-121.6930812,0
1.334,-0.1026,-0.2644,0.748,2.5269,3.0543,0.1317,-0.7862,1.9356,-0.9651,856.6436,9.18,-3.36,-37.2,-165.629,19.3,7.811,49.17047704,-121.6930812,0
1.39,-1.0388,-1.0095,0.6288,2.5269,3.0543,0.1317,-0.7862,1.9356,-0.9651,856.6436,9.18,-3.36,-37.2,126.347,39.74,58.813,49.17047704,-121.6930812,0
1.392,-1.0388,-1.0095,0.6288,2.5269,3.0543,0.1317,-0.7862,1.9356,-0.9651,856.6436,10.98,-0.12,-37.44,125.067,39.74,58.813,49.17047704,-121.6930812,0
1.393,-1.0388,-1.0095,0.6288,2.5269,3.0543,0.1317,0.1811,-0.1278,-0.1683,856.6436,10.98,-0.12,-37.44,125.067,39.74,58.813,49.17047704,-121.6930812,0
1.394,-1.0388,-1.0095,0.6288,-6.318,-3.6346,-0.3249,0.1811,-0.1278,-0.1683,856.6436,10.98,-0.12,-37.44,125.067,39.74,58.813,49.17047704,-121.6930812,0
1.452,-0.7007,-0.8121,0.8956,-6.318,-3.6346,-0.3249,0.1811,-0.1278,-0.1683,856.6436,10.98,-0.12,-37.44,145.732,35.535,38.039,49.17047704,-121.6930812,0
1.453,-0.7007,-0.8121,0.8956,-6.318,-3.6346,-0.3249,0.1811,-0.1278,-0.1683,856.6436,12.9,3,-37.5,146.205,35.535,38.039,49.17047704,-121.6930812,0
1.454,-0.7007,-0.8121,0.8956,-6.318,-3.6346,-0.3249,-1.5691,-0.033,1.24,856.6436,12.9,3,-37.5,146.205,35.535,38.039,49.17047704,-121.6930812,0
1.455,-0.7007,-0.8121,0.8956,-2.7159,-1.6451,2.5253,-1.5691,-0.033,1.24,856.6436,12.9,3,-37.5,146.205,35.535,38.039,49.17047704,-121.6930812,0
1.487,-0.7007,-0.8121,0.8956,-2.7159,-1.6451,2.5253,-1.5691,-0.033,1.24,856.5549,12.9,3,-37.5,146.205,35.535,38.039,49.17047704,-121.6930812,0
1.488,-0.7007,-0.8121,0.8956,-2.7159,-1.6451,2.5253,-1.5691,-0.033,1.24,856.5549,12.9,3,-37.5,146.205,35.535,38.039,49.17047704,-121.6930812,0
1.511,-0.4911,-1.0584,0.4094,-2.7159,-1.6451,2.5253,-1.5691,-0.033,1.24,856.5549,12.9,3,-37.5,143.225,58.866,50.182,49.17047704,-121.6930812,0
1.512,-0.4911,-1.0584,0.4094,-2.7159,-1.6451,2.5253,-1.5691,-0.033,1.24,856.5549,14.7,5.88,-37.44,144.527,58.866,50.182,49.17047704,-121.6930812,0
1.513,-0.4911,-1.0584,0.4094,-2.7159,-1.6451,2.5253,-1.6746,-1.3316,1.0312,856.5549,14.7,5.88,-37.44,144.527,58.866,50.182,49.17047704,-121.6930812,0
1.514,-0.4911,-1.0584,0.4094,-0.2231,-3.8382,-1.6813,-1.6746,-1.3316,1.0312,856.5549,14.7,5.88,-37.44,144.527,58.866,50.182,49.17047704,-121.6930812,0
1.57,-0.2785,-1.0012,2.0013,-0.2231,-3.8382,-1.6813,-1.6746,-1.3316,1.0312,856.5549,14.7,5.88,-37.44,-142.15,26.359,7.923,49.17047704,-121.6930812,0
1.571,-0.2785,-1.0012,2.0013,-0.2231,-3.8382,-1.6813,-1.6746,-1.3316,1.0312,856.5549,16.44,8.82,-37.14,-130.205,26.359,7.923,49.17047704,-121.6930812,0
1.572,-0.2785,-1.0012,2.0013,-0.2231,-3.8382,-1.6813,-2.5428,-1.2666,1.1153,856.5549,16.44,8.82,-37.14,-130.205,26.359,7.923,49.17047704,-121.6930812,0
1.573,-0.2785,-1.0012,2.0013,1.7669,-2.93,14.2656,-2.5428,-1.2666,1.1153,856.5549,16.44,8.82,-37.14,-130.205,26.359,7.923,49.17047704,-121.6930812,0
1.63,-0.148,-0.7525,1.0568,1.7669,-2.93,14.2656,-2.5428,-1.2666,1.1153,856.5549,16.44,8.82,-37.14,-143.976,35.191,7.975,49.17047704,-121.6930812,0
1.631,-0.148,-0.7525,1.0568,1.7669,-2.93,14.2656,-2.5428,-1.2666,1.1153,856.5549,18.06,11.94,-36.6,-134.475,35.191,7.975,49.17047704,-121.6930812,0
1.632,-0.148,-0.7525,1.0568,1.7669,-2.93,14.2656,-0.3036,-0.2929,0.7329,856.5549,18.06,11.94,-36.6,-134.475,35.191,7.975,49.17047704,-121.6930812,0
1.633,-0.148,-0.7525,1.0568,3.0166,-1.0491,4.3402,-0.3036,-0.2929,0.7329,856.5549,18.06,11.94,-36.6,-134.475,35.191,7.975,49.17047704,-121.6930812,0
1.667,-0.148,-0.7525,1.0568,3.0166,-1.0491,4.3402,-0.3036,-0.2929,0.7329,856.5613,18.06,11.94,-36.6,-134.475,35.191,7.975,49.17047704,-121.6930812,0
1.668,-0.148,-0.7525,1.0568,3.0166,-1.0491,4.3402,-0.3036,-0.2929,0.7329,856.5613,18.06,11.94,-36.6,-134.475,35.191,7.975,49.17047704,-121.6930812,0
1.69,0.0098,-0.732,0.4856,3.0166,-1.0491,4.3402,-0.3036,-0.2929,0.7329,856.5613,18.06,11.94,-36.6,-141.453,56.434,-1.153,49.17047704,-121.6930812,0
1.691,0.0098,-0.732,0.4856,3.0166,-1.0491,4.3402,-0.3036,-0.2929,0.7329,856.5613,19.62,15.18,-35.94,-136.213,56.434,-1.153,49.17047704,-121.6930812,0
1.692,0.0098,-0.732,0.4856,3.0166,-1.0491,4.3402,0.0916,-0.5177,0.6157,856.5613,19.62,15.18,-35.94,-136.213,56.434,-1.153,49.17047704,-121.6930812,0
1.693,0.0098,-0.732,0.4856,5.3336,-1.1959,-0.9856,0.0916,-0.5177,0.6157,856.5613,19.62,15.18,-35.94,-136.213,56.434,-1.153,49.17047704,-121.6930812,0
1.749,-0.3655,-0.7892,0.4055,5.3336,-1.1959,-0.9856,0.0916,-0.5177,0.6157,856.5613,19.62,15.18,-35.94,158.528,55.327,42.03,49.17047704,-121.6930812,0
1.751,-0.3655,-0.7892,0.4055,5.3336,-1.1959,-0.9856,0.0916,-0.5177,0.6157,856.5613,21.18,18.36,-35.28,160.892,55.327,42.03,49.17047704,-121.6930812,0
1.752,-0.3655,-0.7892,0.4055,5.3336,-1.1959,-0.9856,0.0479,-0.8085,0.4581,856.5613,21.18,18.36,-35.28,160.892,55.327,42.03,49.17047704,-121.6930812,0
1.753,-0.3655,-0.7892,0.4055,2.07,-2.7873,-2.3318,0.0479,-0.8085,0.4581,856.5613,21.18,18.36,-35.28,160.892,55.327,42.03,49.17047704,-121.6930812,0
1.81,-0.2111,-1.0149,0.2389,2.07,-2.7873,-2.3318,0.0479,-0.8085,0.4581,856.5613,21.18,18.36,-35.28,167.25,72.563,41.466,49.17047704,-121.6930812,0
1.811,-0.2111,-1.0149,0.2389,2.07,-2.7873,-2.3318,0.0479,-0.8085,0.4581,856.5613,22.8,21.48,-34.62,169.881,72.563,41.466,49.17047704,-121.6930812,0
1.812,-0.2111,-1.0149,0.2389,2.07,-2.7873,-2.3318,0.0469,-1.5329,0.9779,856.5613,22.8,21.48,-34.62,169.881,72.563,41.466,49.17047704,-121.6930812,0
1.814,-0.2111,-1.0149,0.2389,3.6837,-5.8241,-4.448,0.0469,-1.5329,0.9779,856.5613,22.8,21.48,-34.62,169.881,72.563,41.466,49.17047704,-121.6930812,0
1.849,-0.2111,-1.0149,0.2389,3.6837,-5.8241,-4.448,0.0469,-1.5329,0.9779,856.5347,22.8,21.48,-34.62,169.881,72.563,41.466,49.17047704,-121.6930812,0
1.851,-0.2111,-1.0149,0.2389,3.6837,-5.8241,-4.448,0.0469,-1.5329,0.9779,856.5347,22.8,21.48,-34.62,169.881,72.563,41.466,49.17047704,-121.6930812,0
1.871,-1.653,-0.8766,-1.441,3.6837,-5.8241,-4.448,0.0469,-1.5329,0.9779,856.5347,22.8,21.48,-34.62,61.817,21.79,131.08,49.17047704,-121.6930812,0
1.873,-1.653,-0.8766,-1.441,3.6837,-5.8241,-4.448,0.0469,-1.5329,0.9779,856.5347,24.3,23.88,-33.9,60.342,21.79,131.08,49.17047704,-121.6930812,0
1.874,-1.653,-0.8766,-1.441,3.6837,-5.8241,-4.448,-2.0261,-2.1422,0.7979,856.5347,24.3,23.88,-33.9,60.342,21.79,131.08,49.17047704,-121.6930812,0
1.876,-1.653,-0.8766,-1.441,-11.1317,-4.325,-21.353,-2.0261,-2.1422,0.7979,856.5347,24.3,23.88,-33.9,60.342,21.79,131.08,49.17047704,-121.6930812,0
1.936,-0.2238,-0.4725,0.4822,-11.1317,-4.325,-21.353,-2.0261,-2.1422,0.7979,856.5347,24.3,23.88,-33.9,-140.353,41.635,24.896,49.17047704,-121.6930812,0
1.939,-0.2238,-0.4725,0.4822,-11.1317,-4.325,-21.353,-2.0261,-2.1422,0.7979,856.5347,25.68,25.74,-33.24,-130.615,41.635,24.896,49.17047704,-121.6930812,0
1.942,-0.2238,-0.4725,0.4822,-11.1317,-4.325,-21.353,-0.4911,0.4677,0.4261,856.5347,25.68,25.74,-33.24,-130.615,41.635,24.896,49.17047704,-121.6930812,0
1.947,-0.2238,-0.4725,0.4822,1.765,-0.0681,-3,-0.4911,0.4677,0.4261,856.5347,25.68,25.74,-33.24,-130.615,41.635,24.896,49.17047704,-121.6930812,0
1.995,0.0049,-0.8248,0.7969,1.765,-0.0681,-3,-0.4911,0.4677,0.4261,856.5347,25.68,25.74,-33.24,-102.857,45.988,-0.351,49.17047704,-121.6930812,0
2.003,0.0049,-0.8248,0.7969,1.765,-0.0681,-3,-0.4911,0.4677,0.4261,856.5347,27.3,27.42,-32.64,-98.891,45.988,-0.351,49.17047704,-121.6930812,0
2.007,0.0049,-0.8248,0.7969,1.765,-0.0681,-3,0.0852,0.7286,0.2397,856.5347,27.3,27.42,-32.64,-98.891,45.988,-0.351,49.17047704,-121.6930812,0
2.011,0.0049,-0.8248,0.7969,4.0448,-3.2752,0.2544,0.0852,0.7286,0.2397,856.5347,27.3,27.42,-32.64,-98.891,45.988,-0.351,49.17047704,-121.6930812,0
2.028,0.0049,-0.8248,0.7969,4.0448,-3.2752,0.2544,0.0852,0.7286,0.2397,856.5457,27.3,27.42,-32.64,-98.891,45.988,-0.351,49.17047704,-121.6930812,0
2.03,0.0049,-0.8248,0.7969,4.0448,-3.2752,0.2544,0.0852,0.7286,0.2397,856.5457,27.3,27.42,-32.64,-98.891,45.988,-0.351,49.17047704,-121.6930812,0
2.056,-0.2927,-0.6387,0.3131,4.0448,-3.2752,0.2544,0.0852,0.7286,0.2397,856.5457,27.3,27.42,-32.64,173.318,56.134,43.066,49.17047704,-121.6930812,0
2.058,-0.2927,-0.6387,0.3131,4.0448,-3.2752,0.2544,0.0852,0.7286,0.2397,856.5457,28.92,28.92,-31.98,177.937,56.134,43.066,49.17047704,-121.6930812,0
2.061,-0.2927,-0.6387,0.3131,4.0448,-3.2752,0.2544,-0.6722,-0.3398,-0.3356,856.5457,28.92,28.92,-31.98,177.937,56.134,43.066,49.17047704,-121.6930812,0
2.063,-0.2927,-0.6387,0.3131,2.3006,-2.4771,-4.3575,-0.6722,-0.3398,-0.3356,856.5457,28.92,28.92,-31.98,177.937,56.134,43.066,49.17047704,-121.6930812,0
2.114,-0.2296,-0.6787,0.2423,2.3006,-2.4771,-4.3575,-0.6722,-0.3398,-0.3356,856.5457,28.92,28.92,-31.98,177.769,63.81,43.465,49.17047704,-121.6930812,0
2.117,-0.2296,-0.6787,0.2423,2.3006,-2.4771,-4.3575,-0.6722,-0.3398,-0.3356,856.5457,30.6,30.06,-31.38,-178.632,63.81,43.465,49.17047704,-121.6930812,0
2.12,-0.2296,-0.6787,0.2423,2.3006,-2.4771,-4.3575,-0.4719,-1.8802,-0.4165,856.5457,30.6,30.06,-31.38,-178.632,63.81,43.465,49.17047704,-121.6930812,0
2.124,-0.2296,-0.6787,0.2423,2.5542,-3.3179,-5.4977,-0.4719,-1.8802,-0.4165,856.5457,30.6,30.06,-31.38,-178.632,63.81,43.465,49.17047704,-121.6930812,0
2.176,-0.4495,-0.8957,0.854,2.5542,-3.3179,-5.4977,-0.4719,-1.8802,-0.4165,856.5457,30.6,30.06,-31.38,-117.731,42.863,27.76,49.17047704,-121.6930812,0
2.179,-0.4495,-0.8957,0.854,2.5542,-3.3179,-5.4977,-0.4719,-1.8802,-0.4165,856.5457,32.22,31.02,-30.78,-112.941,42.863,27.76,49.17047704,-121.6930812,0
2.184,-0.4495,-0.8957,0.854,2.5542,-3.3179,-5.4977,-0.9236,-2.6408,-0.2045,856.5457,32.22,31.02,-30.78,-112.941,42.863,27.76,49.17047704,-121.6930812,0
2.187,-0.4495,-0.8957,0.854,-0.8176,-4.8071,0.1517,-0.9236,-2.6408,-0.2045,856.5457,32.22,31.02,-30.78,-112.941,42.863,27.76,49.17047704,-121.6930812,0
2.207,-0.4495,-0.8957,0.854,-0.8176,-4.8071,0.1517,-0.9236,-2.6408,-0.2045,856.5525,32.22,31.02,-30.78,-112.941,42.863,27.76,49.17047704,-121.6930812,0
2.209,-0.4495,-0.8957,0.854,-0.8176,-4.8071,0.1517,-0.9236,-2.6408,-0.2045,856.5525,32.22,31.02,-30.78,-112.941,42.863,27.76,49.17047704,-121.6930812,0
2.231,-0.1148,-1.1776,0.5017,-0.8176,-4.8071,0.1517,-0.9236,-2.6408,-0.2045,856.5525,32.22,31.02,-30.78,-131.425,66.391,12.89,49.17047704,-121.6930812,0
2.233,-0.1148,-1.1776,0.5017,-0.8176,-4.8071,0.1517,-0.9236,-2.6408,-0.2045,856.5525,33.48,32.1,-30.06,-128.785,66.391,12.89,49.17047704,-121.6930812,0
2.235,-0.1148,-1.1776,0.5017,-0.8176,-4.8071,0.1517,-0.3856,1.2378,0.8597,856.5525,33.48,32.1,-30.06,-128.785,66.391,12.89,49.17047704,-121.6930812,0
2.236,-0.1148,-1.1776,0.5017,1.1263,-6.6107,-3.2558,-0.3856,1.2378,0.8597,856.5525,33.48,32.1,-30.06,-128.785,66.391,12.89,49.17047704,-121.6930812,0
2.3,0.148,-1.0525,-0.108,1.1263,-6.6107,-3.2558,-0.3856,1.2378,0.8597,856.5525,33.48,32.1,-30.06,-5.235,80.122,-126.121,49.17047704,-121.6930812,0
2.308,0.148,-1.0525,-0.108,1.1263,-6.6107,-3.2558,-0.3856,1.2378,0.8597,856.5525,33.66,33.24,-29.22,-4.348,80.122,-126.121,49.17047704,-121.6930812,0
2.33,0.148,-1.0525,-0.108,1.1263,-6.6107,-3.2558,-0.3324,-0.408,2.3031,856.5525,33.66,33.24,-29.22,-4.348,80.122,-126.121,49.17047704,-121.6930812,0
2.334,0.148,-1.0525,-0.108,4.5097,-5.4207,-8.9873,-0.3324,-0.408,2.3031,856.5525,33.66,33.24,-29.22,-4.348,80.122,-126.121,49.17047704,-121.6930812,0
2.349,-0.5898,-1.0027,0.364,4.5097,-5.4207,-8.9873,-0.3324,-0.408,2.3031,856.5525,33.66,33.24,-29.22,157.422,55.349,58.32,49.17047704,-121.6930812,0
2.351,-0.5898,-1.0027,0.364,4.5097,-5.4207,-8.9873,-0.3324,-0.408,2.3031,856.5525,33.36,34.5,-28.44,157.364,55.349,58.32,49.17047704,-121.6930812,0
2.353,-0.5898,-1.0027,0.364,4.5097,-5.4207,-8.9873,-0.1928,0.3505,0.2088,856.5525,33.36,34.5,-28.44,157.364,55.349,58.32,49.17047704,-121.6930812,0
2.355,-0.5898,-1.0027,0.364,-2.6221,-6.5349,-5.1146,-0.1928,0.3505,0.2088,856.5525,33.36,34.5,-28.44,157.364,55.349,58.32,49.17047704,-121.6930812,0
2.387,-0.5898,-1.0027,0.364,-2.6221,-6.5349,-5.1146,-0.1928,0.3505,0.2088,856.7415,33.36,34.5,-28.44,157.364,55.349,58.32,49.17047704,-121.6930812,0
2.388,-0.5898,-1.0027,0.364,-2.6221,-6.5349,-5.1146,-0.1928,0.3505,0.2088,856.7415,33.36,34.5,-28.44,157.364,55.349,58.32,49.17047704,-121.6930812,0
2.409,-0.1964,-0.4383,0.275,-2.6221,-6.5349,-5.1146,-0.1928,0.3505,0.2088,856.7415,33.36,34.5,-28.44,-139.917,52.368,35.534,49.17047704,-121.6930812,0
2.41,-0.1964,-0.4383,0.275,-2.6221,-6.5349,-5.1146,-0.1928,0.3505,0.2088,856.7415,33.06,35.7,-27.6,-135.89,52.368,35.534,49.17047704,-121.6930812,0
2.411,-0.1964,-0.4383,0.275,-2.6221,-6.5349,-5.1146,0.7222,0.751,0.0831,856.7415,33.06,35.7,-27.6,-135.89,52.368,35.534,49.17047704,-121.6930812,0
2.413,-0.1964,-0.4383,0.275,1.5011,-2.1529,-6.2401,0.7222,0.751,0.0831,856.7415,33.06,35.7,-27.6,-135.89,52.368,35.534,49.17047704,-121.6930812,0
2.486,-0.5443,-0.6739,0.7329,1.5011,-2.1529,-6.2401,0.7222,0.751,0.0831,856.7415,33.06,35.7,-27.6,-69.07,36.433,36.602,49.17047704,-121.6930812,0
2.494,-0.5443,-0.6739,0.7329,1.5011,-2.1529,-6.2401,0.7222,0.751,0.0831,856.7415,32.76,37.02,-26.7,-62.28,36.433,36.602,49.17047704,-121.6930812,0
2.495,-0.5443,-0.6739,0.7329,1.5011,-2.1529,-6.2401,0.7713,-0.2567,-0.4027,856.7415,32.76,37.02,-26.7,-62.28,36.433,36.602,49.17047704,-121.6930812,0
2.497,-0.5443,-0.6739,0.7329,-2.0156,-5.9346,-2.0217,0.7713,-0.2567,-0.4027,856.7415,32.76,37.02,-26.7,-62.28,36.433,36.602,49.17047704,-121.6930812,0
2.531,-0.5209,-0.8053,0.4944,-2.0156,-5.9346,-2.0217,0.7713,-0.2567,-0.4027,856.7415,32.76,37.02,-26.7,-154.917,48.274,46.492,49.17047704,-121.6930812,0
2.533,-0.5209,-0.8053,0.4944,-2.0156,-5.9346,-2.0217,0.7713,-0.2567,-0.4027,856.7415,32.52,38.1,-25.98,-147.63,48.274,46.492,49.17047704,-121.6930812,0
2.535,-0.5209,-0.8053,0.4944,-2.0156,-5.9346,-2.0217,-0.6019,-0.4581,-0.163,856.7415,32.52,38.1,-25.98,-147.63,48.274,46.492,49.17047704,-121.6930812,0
2.537,-0.5209,-0.8053,0.4944,-2.6157,-8.8117,-4.5956,-0.6019,-0.4581,-0.163,856.7415,32.52,38.1,-25.98,-147.63,48.274,46.492,49.17047704,-121.6930812,0
2.567,-0.5209,-0.8053,0.4944,-2.6157,-8.8117,-4.5956,-0.6019,-0.4581,-0.163,856.5767,32.52,38.1,-25.98,-147.63,48.274,46.492,49.17047704,-121.6930812,0
2.569,-0.5209,-0.8053,0.4944,-2.6157,-8.8117,-4.5956,-0.6019,-0.4581,-0.163,856.5767,32.52,38.1,-25.98,-147.63,48.274,46.492,49.17047704,-121.6930812,0
2.591,-0.3806,-0.8825,0.3073,-2.6157,-8.8117,-4.5956,-0.6019,-0.4581,-0.163,856.5767,32.52,38.1,-25.98,-179.322,61,51.087,49.17047704,-121.6930812,0
2.593,-0.3806,-0.8825,0.3073,-2.6157,-8.8117,-4.5956,-0.6019,-0.4581,-0.163,856.5767,32.28,38.94,-25.44,-178.383,61,51.087,49.17047704,-121.6930812,0
2.595,-0.3806,-0.8825,0.3073,-2.6157,-8.8117,-4.5956,0.016,-0.7361,0.0884,856.5767,32.28,38.94,-25.44,-178.383,61,51.087,49.17047704,-121.6930812,0
2.597,-0.3806,-0.8825,0.3073,-2.3044,-10.9173,-6.4222,0.016,-0.7361,0.0884,856.5767,32.28,38.94,-25.44,-178.383,61,51.087,49.17047704,-121.6930812,0
2.658,-0.2805,-0.7476,0.6327,-2.3044,-10.9173,-6.4222,0.016,-0.7361,0.0884,856.5767,32.28,38.94,-25.44,-90.642,47.21,23.907,49.17047704,-121.6930812,0
2.663,-0.2805,-0.7476,0.6327,-2.3044,-10.9173,-6.4222,0.016,-0.7361,0.0884,856.5767,31.98,39.66,-25.02,-88.066,47.21,23.907,49.17047704,-121.6930812,0
2.67,-0.2805,-0.7476,0.6327,-2.3044,-10.9173,-6.4222,0.1992,-0.7105,0.0533,856.5767,31.98,39.66,-25.02,-88.066,47.21,23.907,49.17047704,-121.6930812,0
2.674,-0.2805,-0.7476,0.6327,-2.6034,-11.4766,-2.6838,0.1992,-0.7105,0.0533,856.5767,31.98,39.66,-25.02,-88.066,47.21,23.907,49.17047704,-121.6930812,0
2.715,-0.9196,-0.1335,0.8184,-2.6034,-11.4766,-2.6838,0.1992,-0.7105,0.0533,856.5767,31.98,39.66,-25.02,-4.192,6.187,48.333,49.17047704,-121.6930812,0
2.72,-0.9196,-0.1335,0.8184,-2.6034,-11.4766,-2.6838,0.1992,-0.7105,0.0533,856.5767,31.68,40.38,-24.54,-4.355,6.187,48.333,49.17047704,-121.6930812,0
2.729,-0.9196,-0.1335,0.8184,-2.6034,-11.4766,-2.6838,-0.1108,0.7276,-1.3582,856.5767,31.68,40.38,-24.54,-4.355,6.187,48.333,49.17047704,-121.6930812,0
2.733,-0.9196,-0.1335,0.8184,-9.7276,-7.1572,0.1815,-0.1108,0.7276,-1.3582,856.5767,31.68,40.38,-24.54,-4.355,6.187,48.333,49.17047704,-121.6930812,0
2.748,-0.9196,-0.1335,0.8184,-9.7276,-7.1572,0.1815,-0.1108,0.7276,-1.3582,856.4817,31.68,40.38,-24.54,-4.355,6.187,48.333,49.17047704,-121.6930812,0
2.751,-0.9196,-0.1335,0.8184,-9.7276,-7.1572,0.1815,-0.1108,0.7276,-1.3582,856.4817,31.68,40.38,-24.54,-4.355,6.187,48.333,49.17047704,-121.6930812,0
2.775,-0.2888,-0.5449,0.4348,-9.7276,-7.1572,0.1815,-0.1108,0.7276,-1.3582,856.4817,31.68,40.38,-24.54,-87.697,46.23,33.59,49.17047704,-121.6930812,0
2.778,-0.2888,-0.5449,0.4348,-9.7276,-7.1572,0.1815,-0.1108,0.7276,-1.3582,856.4817,31.32,41.1,-24.06,-83.545,46.23,33.59,49.17047704,-121.6930812,0
2.782,-0.2888,-0.5449,0.4348,-9.7276,-7.1572,0.1815,1.3454,2.2296,-0.0756,856.4817,31.32,41.1,-24.06,-83.545,46.23,33.59,49.17047704,-121.6930812,0
2.787,-0.2888,-0.5449,0.4348,-3.7235,-11.9264,-2.9491,1.3454,2.2296,-0.0756,856.4817,31.32,41.1,-24.06,-83.545,46.23,33.59,49.17047704,-121.6930812,0
2.831,-0.1735,-0.7618,0.7006,-3.7235,-11.9264,-2.9491,1.3454,2.2296,-0.0756,856.4817,31.32,41.1,-24.06,-76.635,46.546,13.906,49.17047704,-121.6930812,0
2.833,-0.1735,-0.7618,0.7006,-3.7235,-11.9264,-2.9491,1.3454,2.2296,-0.0756,856.4817,30.96,41.82,-23.64,-74.621,46.546,13.906,49.17047704,-121.6930812,0
2.835,-0.1735,-0.7618,0.7006,-3.7235,-11.9264,-2.9491,1.5201,1.7417,0.2748,856.4817,30.96,41.82,-23.64,-74.621,46.546,13.906,49.17047704,-121.6930812,0
2.836,-0.1735,-0.7618,0.7006,-1.3489,-14.392,-0.0675,1.5201,1.7417,0.2748,856.4817,30.96,41.82,-23.64,-74.621,46.546,13.906,49.17047704,-121.6930812,0
2.893,-0.8829,-0.7144,0.9053,-1.3489,-14.392,-0.0675,1.5201,1.7417,0.2748,856.4817,30.96,41.82,-23.64,-17.965,29.464,44.282,49.17047704,-121.6930812,0
2.896,-0.8829,-0.7144,0.9053,-1.3489,-14.392,-0.0675,1.5201,1.7417,0.2748,856.4817,30.78,42.78,-23.94,-16.258,29.464,44.282,49.17047704,-121.6930812,0
2.9,-0.8829,-0.7144,0.9053,-1.3489,-14.392,-0.0675,0.261,-0.1523,-0.9023,856.4817,30.78,42.78,-23.94,-16.258,29.464,44.282,49.17047704,-121.6930812,0
2.903,-0.8829,-0.7144,0.9053,-7.2998,-14.0741,2.2154,0.261,-0.1523,-0.9023,856.4817,30.78,42.78,-23.94,-16.258,29.464,44.282,49.17047704,-121.6930812,0
2.928,-0.8829,-0.7144,0.9053,-7.2998,-14.0741,2.2154,0.261,-0.1523,-0.9023,856.7588,30.78,42.78,-23.94,-16.258,29.464,44.282,49.17047704,-121.6930812,0
2.931,-0.8829,-0.7144,0.9053,-7.2998,-14.0741,2.2154,0.261,-0.1523,-0.9023,856.7588,30.78,42.78,-23.94,-16.258,29.464,44.282,49.17047704,-121.6930812,0
2.953,-0.7305,-1.2568,0.6117,-7.2998,-14.0741,2.2154,0.261,-0.1523,-0.9023,856.7588,30.78,42.78,-23.94,-164.892,52.834,50.058,49.17047704,-121.6930812,0
2.957,-0.7305,-1.2568,0.6117,-7.2998,-14.0741,2.2154,0.261,-0.1523,-0.9023,856.7588,30.42,44.22,-25.08,-176.335,52.834,50.058,49.17047704,-121.6930812,0
2.96,-0.7305,-1.2568,0.6117,-7.2998,-14.0741,2.2154,-0.7095,-2.2967,-0.5518,856.7588,30.42,44.22,-25.08,-176.335,52.834,50.058,49.17047704,-121.6930812,0
2.963,-0.7305,-1.2568,0.6117,-7.0129,-20.6435,0.8169,-0.7095,-2.2967,-0.5518,856.7588,30.42,44.22,-25.08,-176.335,52.834,50.058,49.17047704,-121.6930812,0
3.012,-0.3762,-1.0687,0.2447,-7.0129,-20.6435,0.8169,-0.7095,-2.2967,-0.5518,856.7588,30.42,44.22,-25.08,166.855,67.218,56.957,49.17047704,-121.6930812,0
3.016,-0.3762,-1.0687,0.2447,-7.0129,-20.6435,0.8169,-0.7095,-2.2967,-0.5518,856.7588,29.1,45.72,-27.12,159.558,67.218,56.957,49.17047704,-121.6930812,0
3.019,-0.3762,-1.0687,0.2447,-7.0129,-20.6435,0.8169,-0.7073,0.4655,-0.1065,856.7588,29.1,45.72,-27.12,159.558,67.218,56.957,49.17047704,-121.6930812,0
3.022,-0.3762,-1.0687,0.2447,-3.3866,-18.1179,-3.7362,-0.7073,0.4655,-0.1065,856.7588,29.1,45.72,-27.12,159.558,67.218,56.957,49.17047704,-121.6930812,0
3.074,-0.4021,-0.9187,0.4099,-3.3866,-18.1179,-3.7362,-0.7073,0.4655,-0.1065,856.7588,29.1,45.72,-27.12,-169.35,57.992,44.453,49.17047704,-121.6930812,0
3.077,-0.4021,-0.9187,0.4099,-3.3866,-18.1179,-3.7362,-0.7073,0.4655,-0.1065,856.7588,27.42,47.28,-29.7,172.409,57.992,44.453,49.17047704,-121.6930812,0
3.08,-0.4021,-0.9187,0.4099,-3.3866,-18.1179,-3.7362,0.0383,-0.1395,-0.1193,856.7588,27.42,47.28,-29.7,172.409,57.992,44.453,49.17047704,-121.6930812,0
3.083,-0.4021,-0.9187,0.4099,-4.1244,-17.3605,-1.1101,0.0383,-0.1395,-0.1193,856.7588,27.42,47.28,-29.7,172.409,57.992,44.453,49.17047704,-121.6930812,0
3.111,-0.4021,-0.9187,0.4099,-4.1244,-17.3605,-1.1101,0.0383,-0.1395,-0.1193,856.6562,27.42,47.28,-29.7,172.409,57.992,44.453,49.17047704,-121.6930812,0
3.113,-0.4021,-0.9187,0.4099,-4.1244,-17.3605,-1.1101,0.0383,-0.1395,-0.1193,856.6562,27.42,47.28,-29.7,172.409,57.992,44.453,49.17047704,-121.6930812,0
3.13,-0.4231,-0.9788,0.4763,-4.1244,-17.3605,-1.1101,0.0383,-0.1395,-0.1193,856.6562,27.42,47.28,-29.7,-174.517,56.937,41.615,49.17047704,-121.6930812,0
3.134,-0.4231,-0.9788,0.4763,-4.1244,-17.3605,-1.1101,0.0383,-0.1395,-0.1193,856.6562,25.74,48.78,-32.34,164.355,56.937,41.615,49.17047704,-121.6930812,0
3.137,-0.4231,-0.9788,0.4763,-4.1244,-17.3605,-1.1101,1.3795,0.2077,1.5958,856.6562,25.74,48.78,-32.34,164.355,56.937,41.615,49.17047704,-121.6930812,0
3.14,-0.4231,-0.9788,0.4763,-5.0741,-18.7275,1.2259,1.3795,0.2077,1.5958,856.6562,25.74,48.78,-32.34,164.355,56.937,41.615,49.17047704,-121.6930812,0
3.193,-0.7471,-0.0905,0.6127,-5.0741,-18.7275,1.2259,1.3795,0.2077,1.5958,856.6562,25.74,48.78,-32.34,10.971,5.349,50.646,49.17047704,-121.6930812,0
3.198,-0.7471,-0.0905,0.6127,-5.0741,-18.7275,1.2259,1.3795,0.2077,1.5958,856.6562,24.36,50.04,-35.16,14.321,5.349,50.646,49.17047704,-121.6930812,0
3.209,-0.7471,-0.0905,0.6127,-5.0741,-18.7275,1.2259,0.1747,0.5145,2.171,856.6562,24.36,50.04,-35.16,14.321,5.349,50.646,49.17047704,-121.6930812,0
3.214,-0.7471,-0.0905,0.6127,-9.709,-10.3298,4.867,0.1747,0.5145,2.171,856.6562,24.36,50.04,-35.16,14.321,5.349,50.646,49.17047704,-121.6930812,0
3.249,-0.7852,-0.473,0.4524,-9.709,-10.3298,4.867,0.1747,0.5145,2.171,856.6562,24.36,50.04,-35.16,34.664,27.565,60.052,49.17047704,-121.6930812,0
3.251,-0.7852,-0.473,0.4524,-9.709,-10.3298,4.867,0.1747,0.5145,2.171,856.6562,23.58,51.18,-38.1,38.075,27.565,60.052,49.17047704,-121.6930812,0
3.253,-0.7852,-0.473,0.4524,-9.709,-10.3298,4.867,-0.2567,-0.0842,0.8629,856.6562,23.58,51.18,-38.1,38.075,27.565,60.052,49.17047704,-121.6930812,0
3.254,-0.7852,-0.473,0.4524,-10.7705,-13.8167,2.8776,-0.2567,-0.0842,0.8629,856.6562,23.58,51.18,-38.1,38.075,27.565,60.052,49.17047704,-121.6930812,0
3.288,-0.7852,-0.473,0.4524,-10.7705,-13.8167,2.8776,-0.2567,-0.0842,0.8629,856.7175,23.58,51.18,-38.1,38.075,27.565,60.052,49.17047704,-121.6930812,0
3.292,-0.7852,-0.473,0.4524,-10.7705,-13.8167,2.8776,-0.2567,-0.0842,0.8629,856.7175,23.58,51.18,-38.1,38.075,27.565,60.052,49.17047704,-121.6930812,0
3.331,-0.6733,-0.7144,0.4573,-10.7705,-13.8167,2.8776,-0.2567,-0.0842,0.8629,856.7175,23.58,51.18,-38.1,57.867,41.275,55.817,49.17047704,-121.6930812,0
3.339,-0.6733,-0.7144,0.4573,-10.7705,-13.8167,2.8776,-0.2567,-0.0842,0.8629,856.7175,22.98,52.14,-41.16,61.683,41.275,55.817,49.17047704,-121.6930812,0
3.343,-0.6733,-0.7144,0.4573,-10.7705,-13.8167,2.8776,-0.2812,-0.1012,0.2812,856.7175,22.98,52.14,-41.16,61.683,41.275,55.817,49.17047704,-121.6930812,0
3.346,-0.6733,-0.7144,0.4573,-11.1997,-15.6501,4.0399,-0.2812,-0.1012,0.2812,856.7175,22.98,52.14,-41.16,61.683,41.275,55.817,49.17047704,-121.6930812,0
3.371,-0.5306,-0.645,0.4275,-11.1997,-15.6501,4.0399,-0.2812,-0.1012,0.2812,856.7175,22.98,52.14,-41.16,66.11,43.429,51.145,49.17047704,-121.6930812,0
3.373,-0.5306,-0.645,0.4275,-11.1997,-15.6501,4.0399,-0.2812,-0.1012,0.2812,856.7175,22.5,52.98,-44.4,70.411,43.429,51.145,49.17047704,-121.6930812,0
3.374,-0.5306,-0.645,0.4275,-11.1997,-15.6501,4.0399,0.3292,0.0138,0.1193,856.7175,22.5,52.98,-44.4,70.411,43.429,51.145,49.17047704,-121.6930812,0
3.376,-0.5306,-0.645,0.4275,-10.3491,-14.6495,4.737,0.3292,0.0138,0.1193,856.7175,22.5,52.98,-44.4,70.411,43.429,51.145,49.17047704,-121.6930812,0
3.434,-0.5389,-0.6372,0.3928,-10.3491,-14.6495,4.737,0.3292,0.0138,0.1193,856.7175,22.5,52.98,-44.4,71.26,43.697,53.915,49.17047704,-121.6930812,0
3.438,-0.5389,-0.6372,0.3928,-10.3491,-14.6495,4.737,0.3292,0.0138,0.1193,856.7175,21.96,53.58,-47.64,74.491,43.697,53.915,49.17047704,-121.6930812,0
3.443,-0.5389,-0.6372,0.3928,-10.3491,-14.6495,4.737,0.1577,0.1481,0.1779,856.7175,21.96,53.58,-47.64,74.491,43.697,53.915,49.17047704,-121.6930812,0
3.446,-0.5389,-0.6372,0.3928,-10.501,-14.397,5.42,0.1577,0.1481,0.1779,856.7175,21.96,53.58,-47.64,74.491,43.697,53.915,49.17047704,-121.6930812,0
3.467,-0.5389,-0.6372,0.3928,-10.501,-14.397,5.42,0.1577,0.1481,0.1779,856.7717,21.96,53.58,-47.64,74.491,43.697,53.915,49.17047704,-121.6930812,0
3.47,-0.5389,-0.6372,0.3928,-10.501,-14.397,5.42,0.1577,0.1481,0.1779,856.7717,21.96,53.58,-47.64,74.491,43.697,53.915,49.17047704,-121.6930812,0
3.495,-0.6973,-0.4232,0.3508,-10.501,-14.397,5.42,0.1577,0.1481,0.1779,856.7717,21.96,53.58,-47.64,49.88,28.467,63.295,49.17047704,-121.6930812,0
3.5,-0.6973,-0.4232,0.3508,-10.501,-14.397,5.42,0.1577,0.1481,0.1779,856.7717,21.48,54.18,-50.88,52.385,28.467,63.295,49.17047704,-121.6930812,0
3.504,-0.6973,-0.4232,0.3508,-10.501,-14.397,5.42,0.5358,0.3089,1.5809,856.7717,21.48,54.18,-50.88,52.385,28.467,63.295,49.17047704,-121.6930812,0
3.507,-0.6973,-0.4232,0.3508,-12.2663,-12.0341,5.5467,0.5358,0.3089,1.5809,856.7717,21.48,54.18,-50.88,52.385,28.467,63.295,49.17047704,-121.6930812,0
3.553,-0.7207,-0.4286,0.427,-12.2663,-12.0341,5.5467,0.5358,0.3089,1.5809,856.7717,21.48,54.18,-50.88,49.531,27.095,59.355,49.17047704,-121.6930812,0
3.556,-0.7207,-0.4286,0.427,-12.2663,-12.0341,5.5467,0.5358,0.3089,1.5809,856.7717,21.18,54.78,-54.12,52.039,27.095,59.355,49.17047704,-121.6930812,0
3.559,-0.7207,-0.4286,0.427,-12.2663,-12.0341,5.5467,0.0181,0.5369,-0.2056,856.7717,21.18,54.78,-54.12,52.039,27.095,59.355,49.17047704,-121.6930812,0
3.563,-0.7207,-0.4286,0.427,-13.5883,-11.0034,6.887,0.0181,0.5369,-0.2056,856.7717,21.18,54.78,-54.12,52.039,27.095,59.355,49.17047704,-121.6930812,0
3.613,-0.7823,-0.497,0.5579,-13.5883,-11.0034,6.887,0.0181,0.5369,-0.2056,856.7717,21.18,54.78,-54.12,50.378,27.349,54.503,49.17047704,-121.6930812,0
3.617,-0.7823,-0.497,0.5579,-13.5883,-11.0034,6.887,0.0181,0.5369,-0.2056,856.7717,20.94,55.26,-57.42,53.139,27.349,54.503,49.17047704,-121.6930812,0
3.62,-0.7823,-0.497,0.5579,-13.5883,-11.0034,6.887,0.0639,0.7233,0.0011,856.7717,20.94,55.26,-57.42,53.139,27.349,54.503,49.17047704,-121.6930812,0
3.623,-0.7823,-0.497,0.5579,-14.6543,-10.9491,8.6904,0.0639,0.7233,0.0011,856.7717,20.94,55.26,-57.42,53.139,27.349,54.503,49.17047704,-121.6930812,0
3.647,-0.7823,-0.497,0.5579,-14.6543,-10.9491,8.6904,0.0639,0.7233,0.0011,856.7617,20.94,55.26,-57.42,53.139,27.349,54.503,49.17047704,-121.6930812,0
3.651,-0.7823,-0.497,0.5579,-14.6543,-10.9491,8.6904,0.0639,0.7233,0.0011,856.7617,20.94,55.26,-57.42,53.139,27.349,54.503,49.17047704,-121.6930812,0
3.673,-0.792,-0.5615,0.3224,-14.6543,-10.9491,8.6904,0.0639,0.7233,0.0011,856.7617,20.94,55.26,-57.42,62.41,33.288,67.85,49.17047704,-121.6930812,0
3.676,-0.792,-0.5615,0.3224,-14.6543,-10.9491,8.6904,0.0639,0.7233,0.0011,856.7617,20.88,55.68,-60.72,64.216,33.288,67.85,49.17047704,-121.6930812,0
3.68,-0.792,-0.5615,0.3224,-14.6543,-10.9491,8.6904,0.033,0.9268,-0.0788,856.7617,20.88,55.68,-60.72,64.216,33.288,67.85,49.17047704,-121.6930812,0
3.683,-0.792,-0.5615,0.3224,-14.9844,-11.4663,6.0649,0.033,0.9268,-0.0788,856.7617,20.88,55.68,-60.72,64.216,33.288,67.85,49.17047704,-121.6930812,0
3.727,-0.708,-0.4789,0.3151,-14.9844,-11.4663,6.0649,0.033,0.9268,-0.0788,856.7617,20.88,55.68,-60.72,62.596,31.715,66.009,49.17047704,-121.6930812,0
3.729,-0.708,-0.4789,0.3151,-14.9844,-11.4663,6.0649,0.033,0.9268,-0.0788,856.7617,20.94,56.1,-64.02,64.365,31.715,66.009,49.17047704,-121.6930812,0
3.731,-0.708,-0.4789,0.3151,-14.9844,-11.4663,6.0649,0.2802,0.9055,-0.1332,856.7617,20.94,56.1,-64.02,64.365,31.715,66.009,49.17047704,-121.6930812,0
3.733,-0.708,-0.4789,0.3151,-14.3172,-10.528,5.8589,0.2802,0.9055,-0.1332,856.7617,20.94,56.1,-64.02,64.365,31.715,66.009,49.17047704,-121.6930812,0
3.788,-0.7715,-0.3318,0.3293,-14.3172,-10.528,5.8589,0.2802,0.9055,-0.1332,856.7617,20.94,56.1,-64.02,54.724,21.583,66.889,49.17047704,-121.6930812,0
3.789,-0.7715,-0.3318,0.3293,-14.3172,-10.528,5.8589,0.2802,0.9055,-0.1332,856.7617,21.06,56.52,-67.26,56.317,21.583,66.889,49.17047704,-121.6930812,0
3.79,-0.7715,-0.3318,0.3293,-14.3172,-10.528,5.8589,0.4123,0.4506,-0.1939,856.7617,21.06,56.52,-67.26,56.317,21.583,66.889,49.17047704,-121.6930812,0
3.792,-0.7715,-0.3318,0.3293,-15.167,-8.7192,6.1294,0.4123,0.4506,-0.1939,856.7617,21.06,56.52,-67.26,56.317,21.583,66.889,49.17047704,-121.6930812,0
3.827,-0.7715,-0.3318,0.3293,-15.167,-8.7192,6.1294,0.4123,0.4506,-0.1939,856.6204,21.06,56.52,-67.26,56.317,21.583,66.889,49.17047704,-121.6930812,0
3.829,-0.7715,-0.3318,0.3293,-15.167,-8.7192,6.1294,0.4123,0.4506,-0.1939,856.6204,21.06,56.52,-67.26,56.317,21.583,66.889,49.17047704,-121.6930812,0
3.85,-0.8302,-0.3567,0.6576,-15.167,-8.7192,6.1294,0.4123,0.4506,-0.1939,856.6204,21.06,56.52,-67.26,48.593,18.616,51.615,49.17047704,-121.6930812,0
3.853,-0.8302,-0.3567,0.6576,-15.167,-8.7192,6.1294,0.4123,0.4506,-0.1939,856.6204,21.12,56.7,-69.78,50.224,18.616,51.615,49.17047704,-121.6930812,0
3.856,-0.8302,-0.3567,0.6576,-15.167,-8.7192,6.1294,-0.2269,-0.6743,-0.4027,856.6204,21.12,56.7,-69.78,50.224,18.616,51.615,49.17047704,-121.6930812,0
3.858,-0.8302,-0.3567,0.6576,-15.5532,-8.6639,10.2448,-0.2269,-0.6743,-0.4027,856.6204,21.12,56.7,-69.78,50.224,18.616,51.615,49.17047704,-121.6930812,0
3.909,-0.9469,-0.5043,0.2574,-15.5532,-8.6639,10.2448,-0.2269,-0.6743,-0.4027,856.6204,21.12,56.7,-69.78,62.08,27.199,74.791,49.17047704,-121.6930812,0
3.912,-0.9469,-0.5043,0.2574,-15.5532,-8.6639,10.2448,-0.2269,-0.6743,-0.4027,856.6204,21.3,56.4,-71.46,63.064,27.199,74.791,49.17047704,-121.6930812,0
3.915,-0.9469,-0.5043,0.2574,-15.5532,-8.6639,10.2448,-0.6402,0.6967,-0.278,856.6204,21.3,56.4,-71.46,63.064,27.199,74.791,49.17047704,-121.6930812,0
3.917,-0.9469,-0.5043,0.2574,-16.9863,-10.1739,5.5907,-0.6402,0.6967,-0.278,856.6204,21.3,56.4,-71.46,63.064,27.199,74.791,49.17047704,-121.6930812,0
3.971,-0.9196,-0.8043,-0.0519,-16.9863,-10.1739,5.5907,-0.6402,0.6967,-0.278,856.6204,21.3,56.4,-71.46,66.769,41.13,93.227,49.17047704,-121.6930812,0
3.975,-0.9196,-0.8043,-0.0519,-16.9863,-10.1739,5.5907,-0.6402,0.6967,-0.278,856.6204,22.56,56.04,-72.3,67.736,41.13,93.227,49.17047704,-121.6930812,0
3.978,-0.9196,-0.8043,-0.0519,-16.9863,-10.1739,5.5907,-0.5188,0.6338,-0.0032,856.6204,22.56,56.04,-72.3,67.736,41.13,93.227,49.17047704,-121.6930812,0
3.981,-0.9196,-0.8043,-0.0519,-16.7854,-13.5636,1.3529,-0.5188,0.6338,-0.0032,856.6204,22.56,56.04,-72.3,67.736,41.13,93.227,49.17047704,-121.6930812,0
4.003,-0.9196,-0.8043,-0.0519,-16.7854,-13.5636,1.3529,-0.5188,0.6338,-0.0032,856.697,22.56,56.04,-72.3,67.736,41.13,93.227,49.17047704,-121.6930812,0
4.005,-0.9196,-0.8043,-0.0519,-16.7854,-13.5636,1.3529,-0.5188,0.6338,-0.0032,856.697,22.56,56.04,-72.3,67.736,41.13,93.227,49.17047704,-121.6930812,0
4.028,-0.7984,-0.412,0.2335,-16.7854,-13.5636,1.3529,-0.5188,0.6338,-0.0032,856.697,22.56,56.04,-72.3,63.382,26.347,73.698,49.17047704,-121.6930812,0
4.03,-0.7984,-0.412,0.2335,-16.7854,-13.5636,1.3529,-0.5188,0.6338,-0.0032,856.697,24.06,55.68,-72.6,64.065,26.347,73.698,49.17047704,-121.6930812,0
4.032,-0.7984,-0.412,0.2335,-16.7854,-13.5636,1.3529,0.0234,0.3622,0.0554,856.697,24.06,55.68,-72.6,64.065,26.347,73.698,49.17047704,-121.6930812,0
4.034,-0.7984,-0.412,0.2335,-15.7813,-9.4588,4.149,0.0234,0.3622,0.0554,856.697,24.06,55.68,-72.6,64.065,26.347,73.698,49.17047704,-121.6930812,0
4.09,-0.8018,-0.4603,0.364,-15.7813,-9.4588,4.149,0.0234,0.3622,0.0554,856.697,24.06,55.68,-72.6,65.757,27.6,65.586,49.17047704,-121.6930812,0
4.093,-0.8018,-0.4603,0.364,-15.7813,-9.4588,4.149,0.0234,0.3622,0.0554,856.697,25.62,55.32,-72.78,66.441,27.6,65.586,49.17047704,-121.6930812,0
4.096,-0.8018,-0.4603,0.364,-15.7813,-9.4588,4.149,0.0767,0.277,-0.0842,856.697,25.62,55.32,-72.78,66.441,27.6,65.586,49.17047704,-121.6930812,0
4.098,-0.8018,-0.4603,0.364,-15.827,-9.8051,5.7202,0.0767,0.277,-0.0842,856.697,25.62,55.32,-72.78,66.441,27.6,65.586,49.17047704,-121.6930812,0
4.148,-0.9157,-0.5033,0.2096,-15.827,-9.8051,5.7202,0.0767,0.277,-0.0842,856.697,25.62,55.32,-72.78,65.814,28.184,77.11,49.17047704,-121.6930812,0
4.151,-0.9157,-0.5033,0.2096,-15.827,-9.8051,5.7202,0.0767,0.277,-0.0842,856.697,27.18,55.02,-72.84,66.448,28.184,77.11,49.17047704,-121.6930812,0
4.154,-0.9157,-0.5033,0.2096,-15.827,-9.8051,5.7202,-0.1907,0.0085,-0.0309,856.697,27.18,55.02,-72.84,66.448,28.184,77.11,49.17047704,-121.6930812,0
4.158,-0.9157,-0.5033,0.2096,-17.035,-10.1226,4.1142,-0.1907,0.0085,-0.0309,856.697,27.18,55.02,-72.84,66.448,28.184,77.11,49.17047704,-121.6930812,0
4.184,-0.9157,-0.5033,0.2096,-17.035,-10.1226,4.1142,-0.1907,0.0085,-0.0309,856.7715,27.18,55.02,-72.84,66.448,28.184,77.11,49.17047704,-121.6930812,0
4.187,-0.9157,-0.5033,0.2096,-17.035,-10.1226,4.1142,-0.1907,0.0085,-0.0309,856.7715,27.18,55.02,-72.84,66.448,28.184,77.11,49.17047704,-121.6930812,0
4.21,-0.8727,-0.519,0.2955,-17.035,-10.1226,4.1142,-0.1907,0.0085,-0.0309,856.7715,27.18,55.02,-72.84,68.422,29.391,71.29,49.17047704,-121.6930812,0
4.212,-0.8727,-0.519,0.2955,-17.035,-10.1226,4.1142,-0.1907,0.0085,-0.0309,856.7715,28.26,54.9,-72.78,68.785,29.391,71.29,49.17047704,-121.6930812,0
4.215,-0.8727,-0.519,0.2955,-17.035,-10.1226,4.1142,-0.2716,-0.1981,0.0437,856.7715,28.26,54.9,-72.78,68.785,29.391,71.29,49.17047704,-121.6930812,0
4.218,-0.8727,-0.519,0.2955,-16.6072,-10.2157,5.1258,-0.2716,-0.1981,0.0437,856.7715,28.26,54.9,-72.78,68.785,29.391,71.29,49.17047704,-121.6930812,0
4.268,-0.6929,-0.6514,0.3933,-16.6072,-10.2157,5.1258,-0.2716,-0.1981,0.0437,856.7715,28.26,54.9,-72.78,85.129,39.27,60.42,49.17047704,-121.6930812,0
4.272,-0.6929,-0.6514,0.3933,-16.6072,-10.2157,5.1258,-0.2716,-0.1981,0.0437,856.7715,29.16,54.78,-72.54,85.664,39.27,60.42,49.17047704,-121.6930812,0
4.276,-0.6929,-0.6514,0.3933,-16.6072,-10.2157,5.1258,0.1332,-0.2674,0.0511,856.7715,29.16,54.78,-72.54,85.664,39.27,60.42,49.17047704,-121.6930812,0
4.28,-0.6929,-0.6514,0.3933,-14.5383,-11.7488,6.5646,0.1332,-0.2674,0.0511,856.7715,29.16,54.78,-72.54,85.664,39.27,60.42,49.17047704,-121.6930812,0
4.329,-0.8771,-0.6621,0.2633,-14.5383,-11.7488,6.5646,0.1332,-0.2674,0.0511,856.7715,29.16,54.78,-72.54,75.495,35.869,73.29,49.17046626,-121.6930881,0.50999999
4.331,-0.8771,-0.6621,0.2633,-14.5383,-11.7488,6.5646,0.1332,-0.2674,0.0511,856.7715,30,54.72,-72.18,75.768,35.869,73.29,49.17046626,-121.6930881,0.50999999
4.333,-0.8771,-0.6621,0.2633,-14.5383,-11.7488,6.5646,1.1729,-0.2013,0.424,856.7715,30,54.72,-72.18,75.768,35.869,73.29,49.17046626,-121.6930881,0.50999999
4.335,-0.8771,-0.6621,0.2633,-16.3845,-11.6548,5.5484,1.1729,-0.2013,0.424,856.7715,30,54.72,-72.18,75.768,35.869,73.29,49.17046626,-121.6930881,0.50999999
4.362,-0.8771,-0.6621,0.2633,-16.3845,-11.6548,5.5484,1.1729,-0.2013,0.424,856.7197,30,54.72,-72.18,75.768,35.869,73.29,49.17046626,-121.6930881,0.50999999
4.364,-0.8771,-0.6621,0.2633,-16.3845,-11.6548,5.5484,1.1729,-0.2013,0.424,856.7197,30,54.72,-72.18,75.768,35.869,73.29,49.17046626,-121.6930881,0.50999999
4.387,-0.9591,-0.0382,0.2599,-16.3845,-11.6548,5.5484,1.1729,-0.2013,0.424,856.7197,30,54.72,-72.18,49.477,2.2,74.84,49.17046626,-121.6930881,0.50999999
4.392,-0.9591,-0.0382,0.2599,-16.3845,-11.6548,5.5484,1.1729,-0.2013,0.424,856.7197,30.78,54.6,-71.88,49.329,2.2,74.84,49.17046626,-121.6930881,0.50999999
4.395,-0.9591,-0.0382,0.2599,-16.3845,-11.6548,5.5484,0.7361,-1.11,-0.2344,856.7197,30.78,54.6,-71.88,49.329,2.2,74.84,49.17046626,-121.6930881,0.50999999
4.397,-0.9591,-0.0382,0.2599,-17.4802,-4.6389,6.1085,0.7361,-1.11,-0.2344,856.7197,30.78,54.6,-71.88,49.329,2.2,74.84,49.17046626,-121.6930881,0.50999999
4.449,-0.8258,-0.6817,0.4446,-17.4802,-4.6389,6.1085,0.7361,-1.11,-0.2344,856.7197,30.78,54.6,-71.88,80.446,36.012,61.703,49.17046626,-121.6930881,0.50999999
4.451,-0.8258,-0.6817,0.4446,-17.4802,-4.6389,6.1085,0.7361,-1.11,-0.2344,856.7197,31.44,54.48,-71.52,80.716,36.012,61.703,49.17046626,-121.6930881,0.50999999
4.454,-0.8258,-0.6817,0.4446,-17.4802,-4.6389,6.1085,-0.3089,-1.3667,-0.6967,856.7197,31.44,54.48,-71.52,80.716,36.012,61.703,49.17046626,-121.6930881,0.50999999
4.457,-0.8258,-0.6817,0.4446,-15.5278,-11.632,8.4023,-0.3089,-1.3667,-0.6967,856.7197,31.44,54.48,-71.52,80.716,36.012,61.703,49.17046626,-121.6930881,0.50999999
4.519,-0.666,-0.6543,0.5345,-15.5278,-11.632,8.4023,-0.3089,-1.3667,-0.6967,856.7197,31.44,54.48,-71.52,88.248,37.461,51.251,49.17046626,-121.6930881,0.50999999
4.538,-0.666,-0.6543,0.5345,-15.5278,-11.632,8.4023,-0.3089,-1.3667,-0.6967,856.7197,31.8,54.18,-71.22,88.698,37.461,51.251,49.17046626,-121.6930881,0.50999999
4.54,-0.666,-0.6543,0.5345,-15.5278,-11.632,8.4023,-0.2993,-1.1846,-0.3643,856.7197,31.8,54.18,-71.22,88.698,37.461,51.251,49.17046626,-121.6930881,0.50999999
4.542,-0.666,-0.6543,0.5345,-13.3316,-11.7927,9.8109,-0.2993,-1.1846,-0.3643,856.7197,31.8,54.18,-71.22,88.698,37.461,51.251,49.17046626,-121.6930881,0.50999999
4.544,-0.666,-0.6543,0.5345,-13.3316,-11.7927,9.8109,-0.2993,-1.1846,-0.3643,856.7351,31.8,54.18,-71.22,88.698,37.461,51.251,49.17046626,-121.6930881,0.50999999
4.546,-0.666,-0.6543,0.5345,-13.3316,-11.7927,9.8109,-0.2993,-1.1846,-0.3643,856.7351,31.8,54.18,-71.22,88.698,37.461,51.251,49.17046626,-121.6930881,0.50999999
4.566,-0.5516,-0.4501,0.3107,-13.3316,-11.7927,9.8109,-0.2993,-1.1846,-0.3643,856.7351,31.8,54.18,-71.22,80.401,35.408,60.611,49.17046626,-121.6930881,0.50999999
4.568,-0.5516,-0.4501,0.3107,-13.3316,-11.7927,9.8109,-0.2993,-1.1846,-0.3643,856.7351,31.86,53.94,-70.86,80.48,35.408,60.611,49.17046626,-121.6930881,0.50999999
4.57,-0.5516,-0.4501,0.3107,-13.3316,-11.7927,9.8109,0.2386,-1.1153,-0.2514,856.7351,31.86,53.94,-70.86,80.48,35.408,60.611,49.17046626,-121.6930881,0.50999999
4.571,-0.5516,-0.4501,0.3107,-11.8957,-9.8817,7.9564,0.2386,-1.1153,-0.2514,856.7351,31.86,53.94,-70.86,80.48,35.408,60.611,49.17046626,-121.6930881,0.50999999
4.634,-0.4451,-0.8507,0.5902,-11.8957,-9.8817,7.9564,0.2386,-1.1153,-0.2514,856.7351,31.86,53.94,-70.86,141.683,49.012,37.024,49.17046626,-121.6930881,0.50999999
4.64,-0.4451,-0.8507,0.5902,-11.8957,-9.8817,7.9564,0.2386,-1.1153,-0.2514,856.7351,31.56,53.7,-70.62,141.371,49.012,37.024,49.17046626,-121.6930881,0.50999999
4.661,-0.4451,-0.8507,0.5902,-11.8957,-9.8817,7.9564,0.0149,-0.9683,-1.0227,856.7351,31.56,53.7,-70.62,141.371,49.012,37.024,49.17046626,-121.6930881,0.50999999
4.67,-0.4451,-0.8507,0.5902,-9.7606,-14.5953,11.0624,0.0149,-0.9683,-1.0227,856.7351,31.56,53.7,-70.62,141.371,49.012,37.024,49.17046626,-121.6930881,0.50999999
4.695,0.1407,0.0043,-0.088,-9.7606,-14.5953,11.0624,0.0149,-0.9683,-1.0227,856.7351,31.56,53.7,-70.62,-39.676,-1.497,-122.023,49.17046626,-121.6930881,0.50999999
4.7,0.1407,0.0043,-0.088,-9.7606,-14.5953,11.0624,0.0149,-0.9683,-1.0227,856.7351,30.18,53.16,-69.78,-39.96,-1.497,-122.023,49.17046626,-121.6930881,0.50999999
4.707,0.1407,0.0043,-0.088,-9.7606,-14.5953,11.0624,0.0373,0.114,-0.7713,856.7351,30.18,53.16,-69.78,-39.96,-1.497,-122.023,49.17046626,-121.6930881,0.50999999
4.711,0.1407,0.0043,-0.088,-4.1286,-6.4712,3.9755,0.0373,0.114,-0.7713,856.7351,30.18,53.16,-69.78,-39.96,-1.497,-122.023,49.17046626,-121.6930881,0.50999999
4.726,0.1407,0.0043,-0.088,-4.1286,-6.4712,3.9755,0.0373,0.114,-0.7713,856.7261,30.18,53.16,-69.78,-39.96,-1.497,-122.023,49.17046626,-121.6930881,0.50999999
4.73,0.1407,0.0043,-0.088,-4.1286,-6.4712,3.9755,0.0373,0.114,-0.7713,856.7261,30.18,53.16,-69.78,-39.96,-1.497,-122.023,49.17046626,-121.6930881,0.50999999
4.751,-0.4173,-0.3597,-0.2546,-4.1286,-6.4712,3.9755,0.0373,0.114,-0.7713,856.7261,30.18,53.16,-69.78,56.893,36.346,121.392,49.17046626,-121.6930881,0.50999999
4.756,-0.4173,-0.3597,-0.2546,-4.1286,-6.4712,3.9755,0.0373,0.114,-0.7713,856.7261,28.56,52.8,-68.94,56.196,36.346,121.392,49.17046626,-121.6930881,0.50999999
4.76,-0.4173,-0.3597,-0.2546,-4.1286,-6.4712,3.9755,-0.2791,1.3614,-1.0557,856.7261,28.56,52.8,-68.94,56.196,36.346,121.392,49.17046626,-121.6930881,0.50999999
4.765,-0.4173,-0.3597,-0.2546,-9.6725,-10.7144,1.1528,-0.2791,1.3614,-1.0557,856.7261,28.56,52.8,-68.94,56.196,36.346,121.392,49.17046626,-121.6930881,0.50999999
4.806,-0.1358,-0.5351,-0.1916,-9.6725,-10.7144,1.1528,-0.2791,1.3614,-1.0557,856.7261,28.56,52.8,-68.94,47.644,66.302,144.665,49.17046626,-121.6930881,0.50999999
4.808,-0.1358,-0.5351,-0.1916,-9.6725,-10.7144,1.1528,-0.2791,1.3614,-1.0557,856.7261,26.82,52.44,-68.1,46.695,66.302,144.665,49.17046626,-121.6930881,0.50999999
4.81,-0.1358,-0.5351,-0.1916,-9.6725,-10.7144,1.1528,-0.8437,2.155,-0.4005,856.7261,26.82,52.44,-68.1,46.695,66.302,144.665,49.17046626,-121.6930881,0.50999999
4.811,-0.1358,-0.5351,-0.1916,-7.365,-12.6884,0.2061,-0.8437,2.155,-0.4005,856.7261,26.82,52.44,-68.1,46.695,66.302,144.665,49.17046626,-121.6930881,0.50999999
4.869,-0.7828,-1.6985,1.0553,-7.365,-12.6884,0.2061,-0.8437,2.155,-0.4005,856.7261,26.82,52.44,-68.1,141.373,52.274,36.565,49.17046626,-121.6930881,0.50999999
4.873,-0.7828,-1.6985,1.0553,-7.365,-12.6884,0.2061,-0.8437,2.155,-0.4005,856.7261,25.26,52.26,-67.2,138.878,52.274,36.565,49.17046626,-121.6930881,0.50999999
4.876,-0.7828,-1.6985,1.0553,-7.365,-12.6884,0.2061,-1.0972,2.4011,0.0277,856.7261,25.26,52.26,-67.2,138.878,52.274,36.565,49.17046626,-121.6930881,0.50999999
4.878,-0.7828,-1.6985,1.0553,-13.903,-24.1918,10.9586,-1.0972,2.4011,0.0277,856.7261,25.26,52.26,-67.2,138.878,52.274,36.565,49.17046626,-121.6930881,0.50999999
4.902,-0.7828,-1.6985,1.0553,-13.903,-24.1918,10.9586,-1.0972,2.4011,0.0277,856.7795,25.26,52.26,-67.2,138.878,52.274,36.565,49.17046626,-121.6930881,0.50999999
4.903,-0.7828,-1.6985,1.0553,-13.903,-24.1918,10.9586,-1.0972,2.4011,0.0277,856.7795,25.26,52.26,-67.2,138.878,52.274,36.565,49.17046626,-121.6930881,0.50999999
4.926,-0.7935,-1.481,0.6376,-13.903,-24.1918,10.9586,-1.0972,2.4011,0.0277,856.7795,25.26,52.26,-67.2,120.241,55.499,51.218,49.17046626,-121.6930881,0.50999999
4.929,-0.7935,-1.481,0.6376,-13.903,-24.1918,10.9586,-1.0972,2.4011,0.0277,856.7795,23.76,52.08,-66.24,118.502,55.499,51.218,49.17046626,-121.6930881,0.50999999
4.93,-0.7935,-1.481,0.6376,-13.903,-24.1918,10.9586,2.481,0.2056,-0.6583,856.7795,23.76,52.08,-66.24,118.502,55.499,51.218,49.17046626,-121.6930881,0.50999999
4.932,-0.7935,-1.481,0.6376,-13.6627,-22.2174,7.7256,2.481,0.2056,-0.6583,856.7795,23.76,52.08,-66.24,118.502,55.499,51.218,49.17046626,-121.6930881,0.50999999
4.983,0.0606,-0.1774,0.1754,-13.6627,-22.2174,7.7256,2.481,0.2056,-0.6583,856.7795,23.76,52.08,-66.24,-90.352,43.722,-19.061,49.17046626,-121.6930881,0.50999999
4.985,0.0606,-0.1774,0.1754,-13.6627,-22.2174,7.7256,2.481,0.2056,-0.6583,856.7795,22.32,51.9,-65.22,-90.081,43.722,-19.061,49.17046626,-121.6930881,0.50999999
4.987,0.0606,-0.1774,0.1754,-13.6627,-22.2174,7.7256,2.1561,0.4357,-0.9151,856.7795,22.32,51.9,-65.22,-90.081,43.722,-19.061,49.17046626,-121.6930881,0.50999999
4.989,0.0606,-0.1774,0.1754,-5.0118,-9.4545,4.0021,2.1561,0.4357,-0.9151,856.7795,22.32,51.9,-65.22,-90.081,43.722,-19.061,49.17046626,-121.6930881,0.50999999
5.05,0.1691,-0.3352,0.146,-5.0118,-9.4545,4.0021,2.1561,0.4357,-0.9151,856.7795,22.32,51.9,-65.22,-83.436,56.322,-49.18,49.17046626,-121.6930881,0.50999999
5.053,0.1691,-0.3352,0.146,-5.0118,-9.4545,4.0021,2.1561,0.4357,-0.9151,856.7795,20.88,51.66,-64.32,-83.767,56.322,-49.18,49.17046626,-121.6930881,0.50999999
5.056,0.1691,-0.3352,0.146,-5.0118,-9.4545,4.0021,0.8927,1.5159,-0.4602,856.7795,20.88,51.66,-64.32,-83.767,56.322,-49.18,49.17046626,-121.6930881,0.50999999
5.059,0.1691,-0.3352,0.146,-3.2444,-11.4412,3.8043,0.8927,1.5159,-0.4602,856.7795,20.88,51.66,-64.32,-83.767,56.322,-49.18,49.17046626,-121.6930881,0.50999999
5.082,0.1691,-0.3352,0.146,-3.2444,-11.4412,3.8043,0.8927,1.5159,-0.4602,856.449,20.88,51.66,-64.32,-83.767,56.322,-49.18,49.17046626,-121.6930881,0.50999999
5.085,0.1691,-0.3352,0.146,-3.2444,-11.4412,3.8043,0.8927,1.5159,-0.4602,856.449,20.88,51.66,-64.32,-83.767,56.322,-49.18,49.17046626,-121.6930881,0.50999999
5.114,-0.3831,-0.8991,0.2242,-3.2444,-11.4412,3.8043,0.8927,1.5159,-0.4602,856.449,20.88,51.66,-64.32,116.506,63.726,59.66,49.17046626,-121.6930881,0.50999999
5.121,-0.3831,-0.8991,0.2242,-3.2444,-11.4412,3.8043,0.8927,1.5159,-0.4602,856.449,19.56,51.36,-63.6,115.231,63.726,59.66,49.17046626,-121.6930881,0.50999999
5.128,-0.3831,-0.8991,0.2242,-3.2444,-11.4412,3.8043,0.7638,3.0552,0.7979,856.449,19.56,51.36,-63.6,115.231,63.726,59.66,49.17046626,-121.6930881,0.50999999
5.13,-0.3831,-0.8991,0.2242,-9.5168,-16.558,3.9146,0.7638,3.0552,0.7979,856.449,19.56,51.36,-63.6,115.231,63.726,59.66,49.17046626,-121.6930881,0.50999999
5.164,-1.1087,-1.485,0.5252,-9.5168,-16.558,3.9146,0.7638,3.0552,0.7979,856.449,19.56,51.36,-63.6,92.225,50.439,64.652,49.17046626,-121.6930881,0.50999999
5.166,-1.1087,-1.485,0.5252,-9.5168,-16.558,3.9146,0.7638,3.0552,0.7979,856.449,18.6,50.82,-63.06,91.641,50.439,64.652,49.17046626,-121.6930881,0.50999999
5.168,-1.1087,-1.485,0.5252,-9.5168,-16.558,3.9146,2.6589,2.5641,0.8266,856.449,18.6,50.82,-63.06,91.641,50.439,64.652,49.17046626,-121.6930881,0.50999999
5.17,-1.1087,-1.485,0.5252,-17.2837,-21.7321,6.9968,2.6589,2.5641,0.8266,856.449,18.6,50.82,-63.06,91.641,50.439,64.652,49.17046626,-121.6930881,0.50999999
5.225,-0.7109,-0.668,0.1856,-17.2837,-21.7321,6.9968,2.6589,2.5641,0.8266,856.449,18.6,50.82,-63.06,75.294,42.275,75.368,49.17046626,-121.6930881,0.50999999
5.227,-0.7109,-0.668,0.1856,-17.2837,-21.7321,6.9968,2.6589,2.5641,0.8266,856.449,18.06,49.68,-62.58,75.605,42.275,75.368,49.17046626,-121.6930881,0.50999999
5.229,-0.7109,-0.668,0.1856,-17.2837,-21.7321,6.9968,3.3748,3.117,0.6274,856.449,18.06,49.68,-62.58,75.605,42.275,75.368,49.17046626,-121.6930881,0.50999999
5.231,-0.7109,-0.668,0.1856,-14.0278,-13.0433,3.8454,3.3748,3.117,0.6274,856.449,18.06,49.68,-62.58,75.605,42.275,75.368,49.17046626,-121.6930881,0.50999999
5.262,-0.7109,-0.668,0.1856,-14.0278,-13.0433,3.8454,3.3748,3.117,0.6274,856.8403,18.06,49.68,-62.58,75.605,42.275,75.368,49.17046626,-121.6930881,0.50999999
5.267,-0.7109,-0.668,0.1856,-14.0278,-13.0433,3.8454,3.3748,3.117,0.6274,856.8403,18.06,49.68,-62.58,75.605,42.275,75.368,49.17046626,-121.6930881,0.50999999
5.29,-0.6792,-0.3953,-0.2629,-14.0278,-13.0433,3.8454,3.3748,3.117,0.6274,856.8403,18.06,49.68,-62.58,54.425,28.495,111.163,49.17046626,-121.6930881,0.50999999
5.3,-0.6792,-0.3953,-0.2629,-14.0278,-13.0433,3.8454,3.3748,3.117,0.6274,856.8403,17.76,47.76,-61.74,55.059,28.495,111.163,49.17046626,-121.6930881,0.50999999
5.305,-0.6792,-0.3953,-0.2629,-14.0278,-13.0433,3.8454,2.7942,3.4738,0.2557,856.8403,17.76,47.76,-61.74,55.059,28.495,111.163,49.17046626,-121.6930881,0.50999999
5.306,-0.6792,-0.3953,-0.2629,-14.1093,-9.9827,-0.7587,2.7942,3.4738,0.2557,856.8403,17.76,47.76,-61.74,55.059,28.495,111.163,49.17046626,-121.6930881,0.50999999
5.344,-1.0412,-0.412,-0.5263,-14.1093,-9.9827,-0.7587,2.7942,3.4738,0.2557,856.8403,17.76,47.76,-61.74,52.157,19.448,116.815,49.17046626,-121.6930881,0.50999999
5.346,-1.0412,-0.412,-0.5263,-14.1093,-9.9827,-0.7587,2.7942,3.4738,0.2557,856.8403,17.88,45.66,-60.54,52.975,19.448,116.815,49.17046626,-121.6930881,0.50999999
5.348,-1.0412,-0.412,-0.5263,-14.1093,-9.9827,-0.7587,2.1774,3.1638,-0.1779,856.8403,17.88,45.66,-60.54,52.975,19.448,116.815,49.17046626,-121.6930881,0.50999999
5.349,-1.0412,-0.412,-0.5263,-17.7159,-10.1361,-3.5619,2.1774,3.1638,-0.1779,856.8403,17.88,45.66,-60.54,52.975,19.448,116.815,49.17046626,-121.6930881,0.50999999
5.419,-1.3202,-0.2971,-0.6196,-17.7159,-10.1361,-3.5619,2.1774,3.1638,-0.1779,856.8403,17.88,45.66,-60.54,53.222,11.516,115.142,49.17046626,-121.6930881,0.50999999
5.425,-1.3202,-0.2971,-0.6196,-17.7159,-10.1361,-3.5619,2.1774,3.1638,-0.1779,856.8403,18.24,43.5,-58.8,53.993,11.516,115.142,49.17046626,-121.6930881,0.50999999
5.43,-1.3202,-0.2971,-0.6196,-17.7159,-10.1361,-3.5619,1.7854,1.9782,-0.7638,856.8403,18.24,43.5,-58.8,53.993,11.516,115.142,49.17046626,-121.6930881,0.50999999
5.435,-1.3202,-0.2971,-0.6196,-20.3671,-9.181,-4.7757,1.7854,1.9782,-0.7638,856.8403,18.24,43.5,-58.8,53.993,11.516,115.142,49.17046626,-121.6930881,0.50999999
5.443,-1.3202,-0.2971,-0.6196,-20.3671,-9.181,-4.7757,1.7854,1.9782,-0.7638,856.8208,18.24,43.5,-58.8,53.993,11.516,115.142,49.17046626,-121.6930881,0.50999999
5.446,-1.3202,-0.2971,-0.6196,-20.3671,-9.181,-4.7757,1.7854,1.9782,-0.7638,856.8208,18.24,43.5,-58.8,53.993,11.516,115.142,49.17046626,-121.6930881,0.50999999
5.465,-1.264,-0.1413,-0.539,-20.3671,-9.181,-4.7757,1.7854,1.9782,-0.7638,856.8208,18.24,43.5,-58.8,54.357,5.87,113.094,49.17046626,-121.6930881,0.50999999
5.468,-1.264,-0.1413,-0.539,-20.3671,-9.181,-4.7757,1.7854,1.9782,-0.7638,856.8208,19.02,41.46,-56.34,54.87,5.87,113.094,49.17046626,-121.6930881,0.50999999
5.47,-1.264,-0.1413,-0.539,-20.3671,-9.181,-4.7757,1.3571,0.3771,-0.9939,856.8208,19.02,41.46,-56.34,54.87,5.87,113.094,49.17046626,-121.6930881,0.50999999
5.473,-1.264,-0.1413,-0.539,-20.4986,-6.8948,-5.1469,1.3571,0.3771,-0.9939,856.8208,19.02,41.46,-56.34,54.87,5.87,113.094,49.17046626,-121.6930881,0.50999999
5.523,-0.7916,0.0718,-0.2576,-20.4986,-6.8948,-5.1469,1.3571,0.3771,-0.9939,856.8208,19.02,41.46,-56.34,55.176,-4.928,108.024,49.17046626,-121.6930881,0.50999999
5.525,-0.7916,0.0718,-0.2576,-20.4986,-6.8948,-5.1469,1.3571,0.3771,-0.9939,856.8208,19.98,39.66,-53.76,55.275,-4.928,108.024,49.17046626,-121.6930881,0.50999999
5.527,-0.7916,0.0718,-0.2576,-20.4986,-6.8948,-5.1469,0.7425,-0.587,-1.3199,856.8208,19.98,39.66,-53.76,55.275,-4.928,108.024,49.17046626,-121.6930881,0.50999999
5.529,-0.7916,0.0718,-0.2576,-16.0804,-4.4826,-2.5438,0.7425,-0.587,-1.3199,856.8208,19.98,39.66,-53.76,55.275,-4.928,108.024,49.17046626,-121.6930881,0.50999999
5.589,-0.8101,-0.108,0.0209,-16.0804,-4.4826,-2.5438,0.7425,-0.587,-1.3199,856.8208,19.98,39.66,-53.76,55.567,7.594,88.519,49.17046626,-121.6930881,0.50999999
5.592,-0.8101,-0.108,0.0209,-16.0804,-4.4826,-2.5438,0.7425,-0.587,-1.3199,856.8208,21.18,37.92,-51.06,55.569,7.594,88.519,49.17046626,-121.6930881,0.50999999
5.595,-0.8101,-0.108,0.0209,-16.0804,-4.4826,-2.5438,-0.1864,-0.4485,-1.4605,856.8208,21.18,37.92,-51.06,55.569,7.594,88.519,49.17046626,-121.6930881,0.50999999
5.599,-0.8101,-0.108,0.0209,-16.2464,-6.2686,0.3366,-0.1864,-0.4485,-1.4605,856.8208,21.18,37.92,-51.06,55.569,7.594,88.519,49.17046626,-121.6930881,0.50999999
5.62,-0.8101,-0.108,0.0209,-16.2464,-6.2686,0.3366,-0.1864,-0.4485,-1.4605,856.6982,21.18,37.92,-51.06,55.569,7.594,88.519,49.17046626,-121.6930881,0.50999999
5.623,-0.8101,-0.108,0.0209,-16.2464,-6.2686,0.3366,-0.1864,-0.4485,-1.4605,856.6982,21.18,37.92,-51.06,55.569,7.594,88.519,49.17046626,-121.6930881,0.50999999
5.645,-1.1883,-0.324,0.0835,-16.2464,-6.2686,0.3366,-0.1864,-0.4485,-1.4605,856.6982,21.18,37.92,-51.06,58.666,15.216,85.981,49.17046626,-121.6930881,0.50999999
5.649,-1.1883,-0.324,0.0835,-16.2464,-6.2686,0.3366,-0.1864,-0.4485,-1.4605,856.6982,23.34,36.66,-49.08,59.066,15.216,85.981,49.17046626,-121.6930881,0.50999999
5.652,-1.1883,-0.324,0.0835,-16.2464,-6.2686,0.3366,-1.1185,0.0778,-0.6274,856.6982,23.34,36.66,-49.08,59.066,15.216,85.981,49.17046626,-121.6930881,0.50999999
5.655,-1.1883,-0.324,0.0835,-20.1402,-8.0752,0.8172,-1.1185,0.0778,-0.6274,856.6982,23.34,36.66,-49.08,59.066,15.216,85.981,49.17046626,-121.6930881,0.50999999
5.707,-1.4868,-0.5971,-0.1418,-20.1402,-8.0752,0.8172,-1.1185,0.0778,-0.6274,856.6982,23.34,36.66,-49.08,62.011,21.792,95.446,49.17046626,-121.6930881,0.50999999
5.711,-1.4868,-0.5971,-0.1418,-20.1402,-8.0752,0.8172,-1.1185,0.0778,-0.6274,856.6982,25.62,35.58,-47.1,62.908,21.792,95.446,49.17046626,-121.6930881,0.50999999
5.714,-1.4868,-0.5971,-0.1418,-20.1402,-8.0752,0.8172,-1.0099,-0.1513,-0.1044,856.6982,25.62,35.58,-47.1,62.908,21.792,95.446,49.17046626,-121.6930881,0.50999999
5.717,-1.4868,-0.5971,-0.1418,-23.0171,-10.8284,-1.6548,-1.0099,-0.1513,-0.1044,856.6982,25.62,35.58,-47.1,62.908,21.792,95.446,49.17046626,-121.6930881,0.50999999
5.766,-1.4267,-0.8082,0.0263,-23.0171,-10.8284,-1.6548,-1.0099,-0.1513,-0.1044,856.6982,25.62,35.58,-47.1,68.988,29.527,88.943,49.17046626,-121.6930881,0.50999999
5.769,-1.4267,-0.8082,0.0263,-23.0171,-10.8284,-1.6548,-1.0099,-0.1513,-0.1044,856.6982,27.78,34.5,-45.06,70.33,29.527,88.943,49.17046626,-121.6930881,0.50999999
5.776,-1.4267,-0.8082,0.0263,-23.0171,-10.8284,-1.6548,-0.1257,-0.6189,0.4389,856.6982,27.78,34.5,-45.06,70.33,29.527,88.943,49.17046626,-121.6930881,0.50999999
5.779,-1.4267,-0.8082,0.0263,-22.5473,-12.6963,0.2148,-0.1257,-0.6189,0.4389,856.6982,27.78,34.5,-45.06,70.33,29.527,88.943,49.17046626,-121.6930881,0.50999999
5.798,-1.4267,-0.8082,0.0263,-22.5473,-12.6963,0.2148,-0.1257,-0.6189,0.4389,856.7971,27.78,34.5,-45.06,70.33,29.527,88.943,49.17046626,-121.6930881,0.50999999
5.8,-1.4267,-0.8082,0.0263,-22.5473,-12.6963,0.2148,-0.1257,-0.6189,0.4389,856.7971,27.78,34.5,-45.06,70.33,29.527,88.943,49.17046626,-121.6930881,0.50999999
5.83,-0.9557,-0.6509,0.0263,-22.5473,-12.6963,0.2148,-0.1257,-0.6189,0.4389,856.7971,27.78,34.5,-45.06,74.604,34.247,88.422,49.17046626,-121.6930881,0.50999999
5.835,-0.9557,-0.6509,0.0263,-22.5473,-12.6963,0.2148,-0.1257,-0.6189,0.4389,856.7971,29.94,33.36,-43.08,76.596,34.247,88.422,49.17046626,-121.6930881,0.50999999
5.839,-0.9557,-0.6509,0.0263,-22.5473,-12.6963,0.2148,0.4698,-1.2549,0.4975,856.7971,29.94,33.36,-43.08,76.596,34.247,88.422,49.17046626,-121.6930881,0.50999999
5.845,-0.9557,-0.6509,0.0263,-17.9194,-11.1445,0.8051,0.4698,-1.2549,0.4975,856.7971,29.94,33.36,-43.08,76.596,34.247,88.422,49.17046626,-121.6930881,0.50999999
5.882,-0.3161,-0.4413,0.2379,-17.9194,-11.1445,0.8051,0.4698,-1.2549,0.4975,856.7971,29.94,33.36,-43.08,132.085,48.121,53.038,49.17046626,-121.6930881,0.50999999
5.883,-0.3161,-0.4413,0.2379,-17.9194,-11.1445,0.8051,0.4698,-1.2549,0.4975,856.7971,31.92,32.1,-41.28,139.315,48.121,53.038,49.17046626,-121.6930881,0.50999999
5.886,-0.3161,-0.4413,0.2379,-17.9194,-11.1445,0.8051,-0.5774,-1.4317,0.425,856.7971,31.92,32.1,-41.28,139.315,48.121,53.038,49.17046626,-121.6930881,0.50999999
5.888,-0.3161,-0.4413,0.2379,-11.447,-9.2548,3.8007,-0.5774,-1.4317,0.425,856.7971,31.92,32.1,-41.28,139.315,48.121,53.038,49.17046626,-121.6930881,0.50999999
5.946,-0.2419,-0.5488,-0.0269,-11.447,-9.2548,3.8007,-0.5774,-1.4317,0.425,856.7971,31.92,32.1,-41.28,104.845,66.085,96.354,49.17046626,-121.6930881,0.50999999
5.949,-0.2419,-0.5488,-0.0269,-11.447,-9.2548,3.8007,-0.5774,-1.4317,0.425,856.7971,33.84,30.9,-39.6,108.248,66.085,96.354,49.17046626,-121.6930881,0.50999999
5.953,-0.2419,-0.5488,-0.0269,-11.447,-9.2548,3.8007,-1.3369,-0.4687,0.2301,856.7971,33.84,30.9,-39.6,108.248,66.085,96.354,49.17046626,-121.6930881,0.50999999
5.956,-0.2419,-0.5488,-0.0269,-10.343,-10.9621,0.9294,-1.3369,-0.4687,0.2301,856.7971,33.84,30.9,-39.6,108.248,66.085,96.354,49.17046626,-121.6930881,0.50999999
5.98,-0.2419,-0.5488,-0.0269,-10.343,-10.9621,0.9294,-1.3369,-0.4687,0.2301,856.5977,33.84,30.9,-39.6,108.248,66.085,96.354,49.17046626,-121.6930881,0.50999999
5.983,-0.2419,-0.5488,-0.0269,-10.343,-10.9621,0.9294,-1.3369,-0.4687,0.2301,856.5977,33.84,30.9,-39.6,108.248,66.085,96.354,49.17046626,-121.6930881,0.50999999
6.006,-0.4749,-0.7388,-0.0343,-10.343,-10.9621,0.9294,-1.3369,-0.4687,0.2301,856.5977,33.84,30.9,-39.6,102.422,57.199,94.126,49.17046626,-121.6930881,0.50999999
6.009,-0.4749,-0.7388,-0.0343,-10.343,-10.9621,0.9294,-1.3369,-0.4687,0.2301,856.5977,35.7,29.7,-38.16,105.847,57.199,94.126,49.17046626,-121.6930881,0.50999999
6.015,-0.4749,-0.7388,-0.0343,-10.343,-10.9621,0.9294,-0.6381,0.065,-0.2802,856.5977,35.7,29.7,-38.16,105.847,57.199,94.126,49.17046626,-121.6930881,0.50999999
6.018,-0.4749,-0.7388,-0.0343,-12.181,-13.4837,0.4013,-0.6381,0.065,-0.2802,856.5977,35.7,29.7,-38.16,105.847,57.199,94.126,49.17046626,-121.6930881,0.50999999
6.091,-0.4578,-0.7721,0.2941,-12.181,-13.4837,0.4013,-0.6381,0.065,-0.2802,856.5977,35.7,29.7,-38.16,152.198,54.824,57.286,49.17046626,-121.6930881,0.50999999
6.098,-0.4578,-0.7721,0.2941,-12.181,-13.4837,0.4013,-0.6381,0.065,-0.2802,856.5977,37.38,28.56,-36.6,157.381,54.824,57.286,49.17046626,-121.6930881,0.50999999
6.105,-0.4578,-0.7721,0.2941,-12.181,-13.4837,0.4013,0.4698,0.4005,-0.2663,856.5977,37.38,28.56,-36.6,157.381,54.824,57.286,49.17046626,-121.6930881,0.50999999
6.113,-0.4578,-0.7721,0.2941,-11.4786,-14.3478,4.02,0.4698,0.4005,-0.2663,856.5977,37.38,28.56,-36.6,157.381,54.824,57.286,49.17046626,-121.6930881,0.50999999
6.121,-0.7637,-0.6543,0.1744,-11.4786,-14.3478,4.02,0.4698,0.4005,-0.2663,856.5977,37.38,28.56,-36.6,103.69,39.871,77.138,49.17046626,-121.6930881,0.50999999
6.123,-0.7637,-0.6543,0.1744,-11.4786,-14.3478,4.02,0.4698,0.4005,-0.2663,856.5977,38.7,27.66,-35.04,107.303,39.871,77.138,49.17046626,-121.6930881,0.50999999
6.125,-0.7637,-0.6543,0.1744,-11.4786,-14.3478,4.02,0.6807,0.9694,-0.1268,856.5977,38.7,27.66,-35.04,107.303,39.871,77.138,49.17046626,-121.6930881,0.50999999
6.127,-0.7637,-0.6543,0.1744,-14.4335,-13.1879,3.1124,0.6807,0.9694,-0.1268,856.5977,38.7,27.66,-35.04,107.303,39.871,77.138,49.17046626,-121.6930881,0.50999999
6.157,-0.7637,-0.6543,0.1744,-14.4335,-13.1879,3.1124,0.6807,0.9694,-0.1268,856.7109,38.7,27.66,-35.04,107.303,39.871,77.138,49.17046626,-121.6930881,0.50999999
6.159,-0.7637,-0.6543,0.1744,-14.4335,-13.1879,3.1124,0.6807,0.9694,-0.1268,856.7109,38.7,27.66,-35.04,107.303,39.871,77.138,49.17046626,-121.6930881,0.50999999
6.181,-0.8634,-0.6108,-0.152,-14.4335,-13.1879,3.1124,0.6807,0.9694,-0.1268,856.7109,38.7,27.66,-35.04,83.936,34.867,99.986,49.17046626,-121.6930881,0.50999999
6.183,-0.8634,-0.6108,-0.152,-14.4335,-13.1879,3.1124,0.6807,0.9694,-0.1268,856.7109,39.54,27.3,-33.54,85.039,34.867,99.986,49.17046626,-121.6930881,0.50999999
6.187,-0.8634,-0.6108,-0.152,-14.4335,-13.1879,3.1124,0.6796,1.0365,-0.0277,856.7109,39.54,27.3,-33.54,85.039,34.867,99.986,49.17046626,-121.6930881,0.50999999
6.189,-0.8634,-0.6108,-0.152,-15.7395,-12.5204,-0.7836,0.6796,1.0365,-0.0277,856.7109,39.54,27.3,-33.54,85.039,34.867,99.986,49.17046626,-121.6930881,0.50999999
6.253,-0.6929,-0.5283,0.0117,-15.7395,-12.5204,-0.7836,0.6796,1.0365,-0.0277,856.7109,39.54,27.3,-33.54,94.521,37.319,89.035,49.17046626,-121.6930881,0.50999999
6.257,-0.6929,-0.5283,0.0117,-15.7395,-12.5204,-0.7836,0.6796,1.0365,-0.0277,856.7109,40.14,27.72,-32.34,94.725,37.319,89.035,49.17046626,-121.6930881,0.50999999
6.262,-0.6929,-0.5283,0.0117,-15.7395,-12.5204,-0.7836,0.4005,1.5212,0.4623,856.7109,40.14,27.72,-32.34,94.725,37.319,89.035,49.17046626,-121.6930881,0.50999999
6.268,-0.6929,-0.5283,0.0117,-14.2965,-11.4867,0.2016,0.4005,1.5212,0.4623,856.7109,40.14,27.72,-32.34,94.725,37.319,89.035,49.17046626,-121.6930881,0.50999999
6.31,-1.1976,-0.6656,-0.196,-14.2965,-11.4867,0.2016,0.4005,1.5212,0.4623,856.7109,40.14,27.72,-32.34,78.564,28.742,99.294,49.17046626,-121.6930881,0.50999999
6.316,-1.1976,-0.6656,-0.196,-14.2965,-11.4867,0.2016,0.4005,1.5212,0.4623,856.7109,40.38,28.38,-31.44,77.736,28.742,99.294,49.17046626,-121.6930881,0.50999999
6.321,-1.1976,-0.6656,-0.196,-14.2965,-11.4867,0.2016,0.1747,2.2296,0.6519,856.7109,40.38,28.38,-31.44,77.736,28.742,99.294,49.17046626,-121.6930881,0.50999999
6.325,-1.1976,-0.6656,-0.196,-19.3699,-12.6225,-2.7508,0.1747,2.2296,0.6519,856.7109,40.38,28.38,-31.44,77.736,28.742,99.294,49.17046626,-121.6930881,0.50999999
6.338,-1.1976,-0.6656,-0.196,-19.3699,-12.6225,-2.7508,0.1747,2.2296,0.6519,856.7087,40.38,28.38,-31.44,77.736,28.742,99.294,49.17045596,-121.6930866,0
6.341,-1.1976,-0.6656,-0.196,-19.3699,-12.6225,-2.7508,0.1747,2.2296,0.6519,856.7087,40.38,28.38,-31.44,77.736,28.742,99.294,49.17045596,-121.6930866,0
6.361,-1.5557,-0.9084,0.125,-19.3699,-12.6225,-2.7508,0.1747,2.2296,0.6519,856.7087,40.38,28.38,-31.44,83.878,30.2,85.405,49.17045596,-121.6930866,0
6.363,-1.5557,-0.9084,0.125,-19.3699,-12.6225,-2.7508,0.1747,2.2296,0.6519,856.7087,40.56,29.1,-30.36,82.43,30.2,85.405,49.17045596,-121.6930866,0
6.366,-1.5557,-0.9084,0.125,-19.3699,-12.6225,-2.7508,0.1896,0.4613,-0.1012,856.7087,40.56,29.1,-30.36,82.43,30.2,85.405,49.17045596,-121.6930866,0
6.368,-1.5557,-0.9084,0.125,-22.8438,-15.0005,0.1033,0.1896,0.4613,-0.1012,856.7087,40.56,29.1,-30.36,82.43,30.2,85.405,49.17045596,-121.6930866,0
6.435,-0.7916,-0.5444,-0.1501,-22.8438,-15.0005,0.1033,0.1896,0.4613,-0.1012,856.7087,40.56,29.1,-30.36,82.432,34.047,100.735,49.17045596,-121.6930866,0
6.44,-0.7916,-0.5444,-0.1501,-22.8438,-15.0005,0.1033,0.1896,0.4613,-0.1012,856.7087,40.44,29.76,-29.88,81.475,34.047,100.735,49.17045596,-121.6930866,0
6.444,-0.7916,-0.5444,-0.1501,-22.8438,-15.0005,0.1033,-0.2312,-0.8117,-0.5752,856.7087,40.44,29.76,-29.88,81.475,34.047,100.735,49.17045596,-121.6930866,0
6.449,-0.7916,-0.5444,-0.1501,-15.3525,-11.4651,-2.4209,-0.2312,-0.8117,-0.5752,856.7087,40.44,29.76,-29.88,81.475,34.047,100.735,49.17045596,-121.6930866,0
6.484,-0.3577,-0.3997,-0.1203,-15.3525,-11.4651,-2.4209,-0.2312,-0.8117,-0.5752,856.7087,40.44,29.76,-29.88,90.724,46.652,108.585,49.17045596,-121.6930866,0
6.491,-0.3577,-0.3997,-0.1203,-15.3525,-11.4651,-2.4209,-0.2312,-0.8117,-0.5752,856.7087,40.32,30.36,-29.58,90.134,46.652,108.585,49.17045596,-121.6930866,0
6.494,-0.3577,-0.3997,-0.1203,-15.3525,-11.4651,-2.4209,-0.4836,-0.5007,-0.6807,856.7087,40.32,30.36,-29.58,90.134,46.652,108.585,49.17045596,-121.6930866,0
6.497,-0.3577,-0.3997,-0.1203,-10.7596,-10.4396,-2.1814,-0.4836,-0.5007,-0.6807,856.7087,40.32,30.36,-29.58,90.134,46.652,108.585,49.17045596,-121.6930866,0
6.519,-0.3577,-0.3997,-0.1203,-10.7596,-10.4396,-2.1814,-0.4836,-0.5007,-0.6807,856.5806,40.32,30.36,-29.58,90.134,46.652,108.585,49.17045596,-121.6930866,0
6.522,-0.3577,-0.3997,-0.1203,-10.7596,-10.4396,-2.1814,-0.4836,-0.5007,-0.6807,856.5806,40.32,30.36,-29.58,90.134,46.652,108.585,49.17045596,-121.6930866,0
6.55,-0.5096,-0.387,-0.2229,-10.7596,-10.4396,-2.1814,-0.4836,-0.5007,-0.6807,856.5806,40.32,30.36,-29.58,76.244,34.832,113.621,49.17045596,-121.6930866,0
6.555,-0.5096,-0.387,-0.2229,-10.7596,-10.4396,-2.1814,-0.4836,-0.5007,-0.6807,856.5806,40.2,30.9,-29.22,75.595,34.832,113.621,49.17045596,-121.6930866,0
6.56,-0.5096,-0.387,-0.2229,-10.7596,-10.4396,-2.1814,-0.6189,-0.1768,-0.751,856.5806,40.2,30.9,-29.22,75.595,34.832,113.621,49.17045596,-121.6930866,0
6.564,-0.5096,-0.387,-0.2229,-12.0201,-10.4847,-3.6092,-0.6189,-0.1768,-0.751,856.5806,40.2,30.9,-29.22,75.595,34.832,113.621,49.17045596,-121.6930866,0
6.607,-0.6728,-0.5517,-0.2732,-12.0201,-10.4847,-3.6092,-0.6189,-0.1768,-0.751,856.5806,40.2,30.9,-29.22,78.321,37.226,112.099,49.17045596,-121.6930866,0
6.613,-0.6728,-0.5517,-0.2732,-12.0201,-10.4847,-3.6092,-0.6189,-0.1768,-0.751,856.5806,40.14,31.26,-28.74,77.917,37.226,112.099,49.17045596,-121.6930866,0
6.617,-0.6728,-0.5517,-0.2732,-12.0201,-10.4847,-3.6092,-0.5571,-0.2802,-0.6711,856.5806,40.14,31.26,-28.74,77.917,37.226,112.099,49.17045596,-121.6930866,0
6.621,-0.6728,-0.5517,-0.2732,-13.4604,-12.1611,-4.5202,-0.5571,-0.2802,-0.6711,856.5806,40.14,31.26,-28.74,77.917,37.226,112.099,49.17045596,-121.6930866,0
6.673,-0.8819,-0.9465,-0.2043,-13.4604,-12.1611,-4.5202,-0.5571,-0.2802,-0.6711,856.5806,40.14,31.26,-28.74,93.036,46.275,103.042,49.17045596,-121.6930866,0
6.678,-0.8819,-0.9465,-0.2043,-13.4604,-12.1611,-4.5202,-0.5571,-0.2802,-0.6711,856.5806,40.08,31.44,-28.32,92.918,46.275,103.042,49.17045596,-121.6930866,0
6.683,-0.8819,-0.9465,-0.2043,-13.4604,-12.1611,-4.5202,-0.1875,-0.2993,-0.245,856.5806,40.08,31.44,-28.32,92.918,46.275,103.042,49.17045596,-121.6930866,0
6.693,-0.8819,-0.9465,-0.2043,-15.4007,-16.1576,-3.7757,-0.1875,-0.2993,-0.245,856.5806,40.08,31.44,-28.32,92.918,46.275,103.042,49.17045596,-121.6930866,0
6.697,-0.8819,-0.9465,-0.2043,-15.4007,-16.1576,-3.7757,-0.1875,-0.2993,-0.245,856.6707,40.08,31.44,-28.32,92.918,46.275,103.042,49.17045596,-121.6930866,0
6.699,-0.8819,-0.9465,-0.2043,-15.4007,-16.1576,-3.7757,-0.1875,-0.2993,-0.245,856.6707,40.08,31.44,-28.32,92.918,46.275,103.042,49.17045596,-121.6930866,0
6.72,-0.8614,-1.1161,-0.1823,-15.4007,-16.1576,-3.7757,-0.1875,-0.2993,-0.245,856.6707,40.08,31.44,-28.32,100.552,51.728,101.95,49.17045596,-121.6930866,0
6.722,-0.8614,-1.1161,-0.1823,-15.4007,-16.1576,-3.7757,-0.1875,-0.2993,-0.245,856.6707,40.08,31.62,-27.9,100.604,51.728,101.95,49.17045596,-121.6930866,0
6.724,-0.8614,-1.1161,-0.1823,-15.4007,-16.1576,-3.7757,0.6125,0.1555,0.7702,856.6707,40.08,31.62,-27.9,100.604,51.728,101.95,49.17045596,-121.6930866,0
6.727,-0.8614,-1.1161,-0.1823,-15.2296,-17.8723,-3.2022,0.6125,0.1555,0.7702,856.6707,40.08,31.62,-27.9,100.604,51.728,101.95,49.17045596,-121.6930866,0
6.791,-0.9499,-0.8659,-0.2502,-15.2296,-17.8723,-3.2022,0.6125,0.1555,0.7702,856.6707,40.08,31.62,-27.9,85.709,41.397,104.759,49.17045596,-121.6930866,0
6.797,-0.9499,-0.8659,-0.2502,-15.2296,-17.8723,-3.2022,0.6125,0.1555,0.7702,856.6707,40.02,31.8,-27.48,85.501,41.397,104.759,49.17045596,-121.6930866,0
6.806,-0.9499,-0.8659,-0.2502,-15.2296,-17.8723,-3.2022,1.436,0.6157,1.2528,856.6707,40.02,31.8,-27.48,85.501,41.397,104.759,49.17045596,-121.6930866,0
6.812,-0.9499,-0.8659,-0.2502,-16.4819,-15.0371,-3.7912,1.436,0.6157,1.2528,856.6707,40.02,31.8,-27.48,85.501,41.397,104.759,49.17045596,-121.6930866,0
6.849,-0.4681,-0.454,0.0205,-16.4819,-15.0371,-3.7912,1.436,0.6157,1.2528,856.6707,40.02,31.8,-27.48,102.755,44.096,87.497,49.17045596,-121.6930866,0
6.854,-0.4681,-0.454,0.0205,-16.4819,-15.0371,-3.7912,1.436,0.6157,1.2528,856.6707,40.02,31.92,-27.06,102.746,44.096,87.497,49.17045596,-121.6930866,0
6.859,-0.4681,-0.454,0.0205,-16.4819,-15.0371,-3.7912,1.6735,1.044,0.9587,856.6707,40.02,31.92,-27.06,102.746,44.096,87.497,49.17045596,-121.6930866,0
6.865,-0.4681,-0.454,0.0205,-11.9613,-10.8275,-0.8529,1.6735,1.044,0.9587,856.6707,40.02,31.92,-27.06,102.746,44.096,87.497,49.17045596,-121.6930866,0
6.876,-0.4681,-0.454,0.0205,-11.9613,-10.8275,-0.8529,1.6735,1.044,0.9587,856.6746,40.02,31.92,-27.06,102.746,44.096,87.497,49.17045596,-121.6930866,0
6.877,-0.4681,-0.454,0.0205,-11.9613,-10.8275,-0.8529,1.6735,1.044,0.9587,856.6746,40.02,31.92,-27.06,102.746,44.096,87.497,49.17045596,-121.6930866,0
6.899,-0.5453,-0.4276,0.147,-11.9613,-10.8275,-0.8529,1.6735,1.044,0.9587,856.6746,40.02,31.92,-27.06,97.713,37.13,74.912,49.17045596,-121.6930866,0
6.9,-0.5453,-0.4276,0.147,-11.9613,-10.8275,-0.8529,1.6735,1.044,0.9587,856.6746,39.96,32.04,-26.52,97.169,37.13,74.912,49.17045596,-121.6930866,0
6.902,-0.5453,-0.4276,0.147,-11.9613,-10.8275,-0.8529,1.0535,0.5582,0.5774,856.6746,39.96,32.04,-26.52,97.169,37.13,74.912,49.17045596,-121.6930866,0
6.907,-0.5453,-0.4276,0.147,-12.9505,-10.3483,0.8164,1.0535,0.5582,0.5774,856.6746,39.96,32.04,-26.52,97.169,37.13,74.912,49.17045596,-121.6930866,0
6.969,-0.8184,-0.6954,0.4162,-12.9505,-10.3483,0.8164,1.0535,0.5582,0.5774,856.6746,39.96,32.04,-26.52,120.236,37.137,63.043,49.17045596,-121.6930866,0
6.974,-0.8184,-0.6954,0.4162,-12.9505,-10.3483,0.8164,1.0535,0.5582,0.5774,856.6746,40.02,32.1,-25.74,121.917,37.137,63.043,49.17045596,-121.6930866,0
6.978,-0.8184,-0.6954,0.4162,-12.9505,-10.3483,0.8164,0.3654,0.8341,0.0053,856.6746,40.02,32.1,-25.74,121.917,37.137,63.043,49.17045596,-121.6930866,0
6.983,-0.8184,-0.6954,0.4162,-15.5941,-13.0226,4.5997,0.3654,0.8341,0.0053,856.6746,40.02,32.1,-25.74,121.917,37.137,63.043,49.17045596,-121.6930866,0
7.019,-0.8228,-0.5859,-0.0778,-15.5941,-13.0226,4.5997,0.3654,0.8341,0.0053,856.6746,40.02,32.1,-25.74,81.208,35.333,95.398,49.17045596,-121.6930866,0
7.021,-0.8228,-0.5859,-0.0778,-15.5941,-13.0226,4.5997,0.3654,0.8341,0.0053,856.6746,40.08,32.16,-24.9,81.018,35.333,95.398,49.17045596,-121.6930866,0
7.022,-0.8228,-0.5859,-0.0778,-15.5941,-13.0226,4.5997,0.7766,0.4016,-0.375,856.6746,40.08,32.16,-24.9,81.018,35.333,95.398,49.17045596,-121.6930866,0
7.025,-0.8228,-0.5859,-0.0778,-15.6831,-11.9032,-0.372,0.7766,0.4016,-0.375,856.6746,40.08,32.16,-24.9,81.018,35.333,95.398,49.17045596,-121.6930866,0
7.057,-0.8228,-0.5859,-0.0778,-15.6831,-11.9032,-0.372,0.7766,0.4016,-0.375,856.7686,40.08,32.16,-24.9,81.018,35.333,95.398,49.17045596,-121.6930866,0
7.06,-0.8228,-0.5859,-0.0778,-15.6831,-11.9032,-0.372,0.7766,0.4016,-0.375,856.7686,40.08,32.16,-24.9,81.018,35.333,95.398,49.17045596,-121.6930866,0
7.082,-0.6762,-0.4183,-0.1398,-15.6831,-11.9032,-0.372,0.7766,0.4016,-0.375,856.7686,40.08,32.16,-24.9,73.248,31.207,101.681,49.17045596,-121.6930866,0
7.09,-0.6762,-0.4183,-0.1398,-15.6831,-11.9032,-0.372,0.7766,0.4016,-0.375,856.7686,40.14,32.22,-23.94,72.917,31.207,101.681,49.17045596,-121.6930866,0
7.094,-0.6762,-0.4183,-0.1398,-15.6831,-11.9032,-0.372,0.7862,0.1406,-0.4463,856.7686,40.14,32.22,-23.94,72.917,31.207,101.681,49.17045596,-121.6930866,0
7.097,-0.6762,-0.4183,-0.1398,-14.2074,-10.3118,-1.0299,0.7862,0.1406,-0.4463,856.7686,40.14,32.22,-23.94,72.917,31.207,101.681,49.17045596,-121.6930866,0
7.141,-0.729,-0.3401,-0.2219,-14.2074,-10.3118,-1.0299,0.7862,0.1406,-0.4463,856.7686,40.14,32.22,-23.94,64.348,24.054,106.929,49.17045596,-121.6930866,0
7.145,-0.729,-0.3401,-0.2219,-14.2074,-10.3118,-1.0299,0.7862,0.1406,-0.4463,856.7686,40.26,32.28,-23.04,63.939,24.054,106.929,49.17045596,-121.6930866,0
7.149,-0.729,-0.3401,-0.2219,-14.2074,-10.3118,-1.0299,0.4953,0.3302,-0.6136,856.7686,40.26,32.28,-23.04,63.939,24.054,106.929,49.17045596,-121.6930866,0
7.152,-0.729,-0.3401,-0.2219,-14.7691,-9.5,-2.2417,0.4953,0.3302,-0.6136,856.7686,40.26,32.28,-23.04,63.939,24.054,106.929,49.17045596,-121.6930866,0
7.202,-0.6899,-0.3172,-0.2365,-14.7691,-9.5,-2.2417,0.4953,0.3302,-0.6136,856.7686,40.26,32.28,-23.04,63.476,23.503,108.925,49.17045596,-121.6930866,0
7.21,-0.6899,-0.3172,-0.2365,-14.7691,-9.5,-2.2417,0.4953,0.3302,-0.6136,856.7686,40.32,32.28,-22.14,63.105,23.503,108.925,49.17045596,-121.6930866,0
7.214,-0.6899,-0.3172,-0.2365,-14.7691,-9.5,-2.2417,0.0948,0.4581,-0.5422,856.7686,40.32,32.28,-22.14,63.105,23.503,108.925,49.17045596,-121.6930866,0
7.217,-0.6899,-0.3172,-0.2365,-14.4336,-9.1842,-2.9413,0.0948,0.4581,-0.5422,856.7686,40.32,32.28,-22.14,63.105,23.503,108.925,49.17045596,-121.6930866,0
7.236,-0.6899,-0.3172,-0.2365,-14.4336,-9.1842,-2.9413,0.0948,0.4581,-0.5422,856.7471,40.32,32.28,-22.14,63.105,23.503,108.925,49.17045596,-121.6930866,0
7.239,-0.6899,-0.3172,-0.2365,-14.4336,-9.1842,-2.9413,0.0948,0.4581,-0.5422,856.7471,40.32,32.28,-22.14,63.105,23.503,108.925,49.17045596,-121.6930866,0
7.261,-0.8023,-0.6348,-0.0958,-14.4336,-9.1842,-2.9413,0.0948,0.4581,-0.5422,856.7471,40.32,32.28,-22.14,85.145,38.153,96.811,49.17045596,-121.6930866,0
7.265,-0.8023,-0.6348,-0.0958,-14.4336,-9.1842,-2.9413,0.0948,0.4581,-0.5422,856.7471,40.38,32.34,-21.3,85.103,38.153,96.811,49.17045596,-121.6930866,0
7.269,-0.8023,-0.6348,-0.0958,-14.4336,-9.1842,-2.9413,-0.327,1.0674,-0.2642,856.7471,40.38,32.34,-21.3,85.103,38.153,96.811,49.17045596,-121.6930866,0
7.272,-0.8023,-0.6348,-0.0958,-15.4891,-12.2814,-2.0678,-0.327,1.0674,-0.2642,856.7471,40.38,32.34,-21.3,85.103,38.153,96.811,49.17045596,-121.6930866,0
7.322,-1.4605,-1.2441,-0.1491,-15.4891,-12.2814,-2.0678,-0.327,1.0674,-0.2642,856.7471,40.38,32.34,-21.3,89.774,40.279,95.829,49.17045596,-121.6930866,0
7.329,-1.4605,-1.2441,-0.1491,-15.4891,-12.2814,-2.0678,-0.327,1.0674,-0.2642,856.7471,40.32,32.46,-21.12,89.502,40.279,95.829,49.17045596,-121.6930866,0
7.332,-1.4605,-1.2441,-0.1491,-15.4891,-12.2814,-2.0678,0.0234,1.4243,0.3153,856.7471,40.32,32.46,-21.12,89.502,40.279,95.829,49.17045596,-121.6930866,0
7.335,-1.4605,-1.2441,-0.1491,-21.8893,-18.1365,-3.3116,0.0234,1.4243,0.3153,856.7471,40.32,32.46,-21.12,89.502,40.279,95.829,49.17045596,-121.6930866,0
7.393,-1.2425,-1.0711,0.0117,-21.8893,-18.1365,-3.3116,0.0234,1.4243,0.3153,856.7471,40.32,32.46,-21.12,95.143,40.761,89.462,49.17045596,-121.6930866,0
7.397,-1.2425,-1.0711,0.0117,-21.8893,-18.1365,-3.3116,0.0234,1.4243,0.3153,856.7471,40.14,32.64,-20.64,94.543,40.761,89.462,49.17045596,-121.6930866,0
7.402,-1.2425,-1.0711,0.0117,-21.8893,-18.1365,-3.3116,1.077,-0.032,0.6967,856.7471,40.14,32.64,-20.64,94.543,40.761,89.462,49.17045596,-121.6930866,0
7.408,-1.2425,-1.0711,0.0117,-19.917,-16.2723,-1.5902,1.077,-0.032,0.6967,856.7471,40.14,32.64,-20.64,94.543,40.761,89.462,49.17045596,-121.6930866,0
7.416,-1.2425,-1.0711,0.0117,-19.917,-16.2723,-1.5902,1.077,-0.032,0.6967,856.5842,40.14,32.64,-20.64,94.543,40.761,89.462,49.17045596,-121.6930866,0
7.417,-1.2425,-1.0711,0.0117,-19.917,-16.2723,-1.5902,1.077,-0.032,0.6967,856.5842,40.14,32.64,-20.64,94.543,40.761,89.462,49.17045596,-121.6930866,0
7.438,-0.624,-0.3724,-0.0582,-19.917,-16.2723,-1.5902,1.077,-0.032,0.6967,856.5842,40.14,32.64,-20.64,70.448,30.72,95.329,49.17045596,-121.6930866,0
7.441,-0.624,-0.3724,-0.0582,-19.917,-16.2723,-1.5902,1.077,-0.032,0.6967,856.5842,39.96,32.88,-20.1,69.448,30.72,95.329,49.17045596,-121.6930866,0
7.443,-0.624,-0.3724,-0.0582,-19.917,-16.2723,-1.5902,0.359,-0.5039,-0.4314,856.5842,39.96,32.88,-20.1,69.448,30.72,95.329,49.17045596,-121.6930866,0
7.448,-0.624,-0.3724,-0.0582,-13.9791,-9.5011,-0.852,0.359,-0.5039,-0.4314,856.5842,39.96,32.88,-20.1,69.448,30.72,95.329,49.17045596,-121.6930866,0
7.5,-0.6117,-0.6621,-0.2585,-13.9791,-9.5011,-0.852,0.359,-0.5039,-0.4314,856.5842,39.96,32.88,-20.1,85.266,44.914,112.91,49.17045596,-121.6930866,0
7.503,-0.6117,-0.6621,-0.2585,-13.9791,-9.5011,-0.852,0.359,-0.5039,-0.4314,856.5842,39.78,33.06,-19.5,85.043,44.914,112.91,49.17045596,-121.6930866,0
7.508,-0.6117,-0.6621,-0.2585,-13.9791,-9.5011,-0.852,-0.8288,-1.0301,-0.3633,856.5842,39.78,33.06,-19.5,85.043,44.914,112.91,49.17045596,-121.6930866,0
7.511,-0.6117,-0.6621,-0.2585,-13.6023,-12.6424,-3.1933,-0.8288,-1.0301,-0.3633,856.5842,39.78,33.06,-19.5,85.043,44.914,112.91,49.17045596,-121.6930866,0
7.558,-0.4573,-0.6616,-0.217,-13.6023,-12.6424,-3.1933,-0.8288,-1.0301,-0.3633,856.5842,39.78,33.06,-19.5,92.998,52.581,115.384,49.17045596,-121.6930866,0
7.56,-0.4573,-0.6616,-0.217,-13.6023,-12.6424,-3.1933,-0.8288,-1.0301,-0.3633,856.5842,39.6,33.3,-18.96,92.895,52.581,115.384,49.17045596,-121.6930866,0
7.562,-0.4573,-0.6616,-0.217,-13.6023,-12.6424,-3.1933,-0.587,-0.6424,-0.5774,856.5842,39.6,33.3,-18.96,92.895,52.581,115.384,49.17045596,-121.6930866,0
7.564,-0.4573,-0.6616,-0.217,-11.6951,-13.1031,-2.7001,-0.587,-0.6424,-0.5774,856.5842,39.6,33.3,-18.96,92.895,52.581,115.384,49.17045596,-121.6930866,0
7.593,-0.4573,-0.6616,-0.217,-11.6951,-13.1031,-2.7001,-0.587,-0.6424,-0.5774,856.5232,39.6,33.3,-18.96,92.895,52.581,115.384,49.17045596,-121.6930866,0
7.595,-0.4573,-0.6616,-0.217,-11.6951,-13.1031,-2.7001,-0.587,-0.6424,-0.5774,856.5232,39.6,33.3,-18.96,92.895,52.581,115.384,49.17045596,-121.6930866,0
7.617,-0.6401,-0.4173,-0.1672,-11.6951,-13.1031,-2.7001,-0.587,-0.6424,-0.5774,856.5232,39.6,33.3,-18.96,70.074,32.246,104.637,49.17045596,-121.6930866,0
7.619,-0.6401,-0.4173,-0.1672,-11.6951,-13.1031,-2.7001,-0.587,-0.6424,-0.5774,856.5232,39.42,33.3,-18.36,69.639,32.246,104.637,49.17045596,-121.6930866,0
7.621,-0.6401,-0.4173,-0.1672,-11.6951,-13.1031,-2.7001,-0.685,0.587,-0.8064,856.5232,39.42,33.3,-18.36,69.639,32.246,104.637,49.17045596,-121.6930866,0
7.622,-0.6401,-0.4173,-0.1672,-13.2247,-10.9648,-2.3977,-0.685,0.587,-0.8064,856.5232,39.42,33.3,-18.36,69.639,32.246,104.637,49.17045596,-121.6930866,0
7.678,-1.0114,-0.7686,-0.4335,-13.2247,-10.9648,-2.3977,-0.685,0.587,-0.8064,856.5232,39.42,33.3,-18.36,71.739,34.935,113.198,49.17045596,-121.6930866,0
7.68,-1.0114,-0.7686,-0.4335,-13.2247,-10.9648,-2.3977,-0.685,0.587,-0.8064,856.5232,39.24,33.36,-17.82,71.399,34.935,113.198,49.17045596,-121.6930866,0
7.687,-1.0114,-0.7686,-0.4335,-13.2247,-10.9648,-2.3977,-0.7638,0.4293,-0.3398,856.5232,39.24,33.36,-17.82,71.399,34.935,113.198,49.17045596,-121.6930866,0
7.689,-1.0114,-0.7686,-0.4335,-16.9071,-14.1651,-6.0508,-0.7638,0.4293,-0.3398,856.5232,39.24,33.36,-17.82,71.399,34.935,113.198,49.17045596,-121.6930866,0
7.738,-0.4598,-0.7945,0.0918,-16.9071,-14.1651,-6.0508,-0.7638,0.4293,-0.3398,856.5232,39.24,33.36,-17.82,152.968,59.455,78.709,49.17045596,-121.6930866,0
7.74,-0.4598,-0.7945,0.0918,-16.9071,-14.1651,-6.0508,-0.7638,0.4293,-0.3398,856.5232,39.12,33.42,-17.22,154.047,59.455,78.709,49.17045596,-121.6930866,0
7.742,-0.4598,-0.7945,0.0918,-16.9071,-14.1651,-6.0508,0.9832,-1.3667,0.3047,856.5232,39.12,33.42,-17.22,154.047,59.455,78.709,49.17045596,-121.6930866,0
7.744,-0.4598,-0.7945,0.0918,-11.0033,-14.9183,-0.8587,0.9832,-1.3667,0.3047,856.5232,39.12,33.42,-17.22,154.047,59.455,78.709,49.17045596,-121.6930866,0
7.775,-0.4598,-0.7945,0.0918,-11.0033,-14.9183,-0.8587,0.9832,-1.3667,0.3047,856.5271,39.12,33.42,-17.22,154.047,59.455,78.709,49.17045596,-121.6930866,0
7.777,-0.4598,-0.7945,0.0918,-11.0033,-14.9183,-0.8587,0.9832,-1.3667,0.3047,856.5271,39.12,33.42,-17.22,154.047,59.455,78.709,49.17045596,-121.6930866,0
7.803,-0.2604,-0.5962,-0.0401,-11.0033,-14.9183,-0.8587,0.9832,-1.3667,0.3047,856.5271,39.12,33.42,-17.22,130.255,66.155,98.759,49.17045596,-121.6930866,0
7.81,-0.2604,-0.5962,-0.0401,-11.0033,-14.9183,-0.8587,0.9832,-1.3667,0.3047,856.5271,38.94,33.54,-16.62,130.843,66.155,98.759,49.17045596,-121.6930866,0
7.815,-0.2604,-0.5962,-0.0401,-11.0033,-14.9183,-0.8587,1.7119,0.5465,0.4975,856.5271,38.94,33.54,-16.62,130.843,66.155,98.759,49.17045596,-121.6930866,0
7.816,-0.2604,-0.5962,-0.0401,-8.5835,-13.4406,-1.8289,1.7119,0.5465,0.4975,856.5271,38.94,33.54,-16.62,130.843,66.155,98.759,49.17045596,-121.6930866,0
7.869,-0.9777,-0.4383,-0.2424,-8.5835,-13.4406,-1.8289,1.7119,0.5465,0.4975,856.5271,38.94,33.54,-16.62,55.896,23.517,103.925,49.17045596,-121.6930866,0
7.874,-0.9777,-0.4383,-0.2424,-8.5835,-13.4406,-1.8289,1.7119,0.5465,0.4975,856.5271,38.82,33.66,-16.08,55.148,23.517,103.925,49.17045596,-121.6930866,0
7.876,-0.9777,-0.4383,-0.2424,-8.5835,-13.4406,-1.8289,1.2027,1.1856,0.2972,856.5271,38.82,33.66,-16.08,55.148,23.517,103.925,49.17045596,-121.6930866,0
7.878,-0.9777,-0.4383,-0.2424,-16.1309,-11.4674,-3.7337,1.2027,1.1856,0.2972,856.5271,38.82,33.66,-16.08,55.148,23.517,103.925,49.17045596,-121.6930866,0
7.934,-1.1903,-0.3103,-0.3758,-16.1309,-11.4674,-3.7337,1.2027,1.1856,0.2972,856.5271,38.82,33.66,-16.08,47.338,13.962,107.523,49.17045596,-121.6930866,0
7.936,-1.1903,-0.3103,-0.3758,-16.1309,-11.4674,-3.7337,1.2027,1.1856,0.2972,856.5271,38.64,33.9,-15.6,46.518,13.962,107.523,49.17045596,-121.6930866,0
7.937,-1.1903,-0.3103,-0.3758,-16.1309,-11.4674,-3.7337,0.1033,0.2407,0.5976,856.5271,38.64,33.9,-15.6,46.518,13.962,107.523,49.17045596,-121.6930866,0
7.939,-1.1903,-0.3103,-0.3758,-19.2968,-8.8966,-5.5888,0.1033,0.2407,0.5976,856.5271,38.64,33.9,-15.6,46.518,13.962,107.523,49.17045596,-121.6930866,0
7.954,-1.1903,-0.3103,-0.3758,-19.2968,-8.8966,-5.5888,0.1033,0.2407,0.5976,856.772,38.64,33.9,-15.6,46.518,13.962,107.523,49.17045596,-121.6930866,0
7.956,-1.1903,-0.3103,-0.3758,-19.2968,-8.8966,-5.5888,0.1033,0.2407,0.5976,856.772,38.64,33.9,-15.6,46.518,13.962,107.523,49.17045596,-121.6930866,0
7.983,-0.815,-0.7139,-0.0045,-19.2968,-8.8966,-5.5888,0.1033,0.2407,0.5976,856.772,38.64,33.9,-15.6,89.651,41.217,90.313,49.17045596,-121.6930866,0
7.988,-0.815,-0.7139,-0.0045,-19.2968,-8.8966,-5.5888,0.1033,0.2407,0.5976,856.772,38.46,34.2,-15.12,88.36,41.217,90.313,49.17045596,-121.6930866,0
7.993,-0.815,-0.7139,-0.0045,-19.2968,-8.8966,-5.5888,-0.4101,-0.1406,0.1289,856.772,38.46,34.2,-15.12,88.36,41.217,90.313,49.17045596,-121.6930866,0
7.999,-0.815,-0.7139,-0.0045,-15.8495,-12.5637,-1.8764,-0.4101,-0.1406,0.1289,856.772,38.46,34.2,-15.12,88.36,41.217,90.313,49.17045596,-121.6930866,0
8.04,-0.4393,-1.9521,0.4201,-15.8495,-12.5637,-1.8764,-0.4101,-0.1406,0.1289,856.772,38.46,34.2,-15.12,-149.279,72.704,46.274,49.17045596,-121.6930866,0
8.044,-0.4393,-1.9521,0.4201,-15.8495,-12.5637,-1.8764,-0.4101,-0.1406,0.1289,856.772,38.28,34.44,-14.64,-148.423,72.704,46.274,49.17045596,-121.6930866,0
8.05,-0.4393,-1.9521,0.4201,-15.8495,-12.5637,-1.8764,0.3292,-0.4016,-0.4922,856.772,38.28,34.44,-14.64,-148.423,72.704,46.274,49.17045596,-121.6930866,0
8.054,-0.4393,-1.9521,0.4201,-12.0951,-24.8599,2.489,0.3292,-0.4016,-0.4922,856.772,38.28,34.44,-14.64,-148.423,72.704,46.274,49.17045596,-121.6930866,0
8.107,-0.6499,-2.0014,0.0801,-12.0951,-24.8599,2.489,0.3292,-0.4016,-0.4922,856.772,38.28,34.44,-14.64,160.029,71.884,82.976,49.17045596,-121.6930866,0
8.113,-0.6499,-2.0014,0.0801,-12.0951,-24.8599,2.489,0.3292,-0.4016,-0.4922,856.772,38.1,34.74,-14.22,160.562,71.884,82.976,49.17045596,-121.6930866,0
8.118,-0.6499,-2.0014,0.0801,-12.0951,-24.8599,2.489,2.0112,0.8352,-0.3601,856.772,38.1,34.74,-14.22,160.562,71.884,82.976,49.17045596,-121.6930866,0
8.122,-0.6499,-2.0014,0.0801,-13.9726,-25.6817,-0.4498,2.0112,0.8352,-0.3601,856.772,38.1,34.74,-14.22,160.562,71.884,82.976,49.17045596,-121.6930866,0
8.135,-0.6499,-2.0014,0.0801,-13.9726,-25.6817,-0.4498,2.0112,0.8352,-0.3601,857.0015,38.1,34.74,-14.22,160.562,71.884,82.976,49.17045596,-121.6930866,0
8.137,-0.6499,-2.0014,0.0801,-13.9726,-25.6817,-0.4498,2.0112,0.8352,-0.3601,857.0015,38.1,34.74,-14.22,160.562,71.884,82.976,49.17045596,-121.6930866,0
8.158,-0.2805,-0.6919,-0.2561,-13.9726,-25.6817,-0.4498,2.0112,0.8352,-0.3601,857.0015,38.1,34.74,-14.22,89.276,61.238,132.4,49.17045596,-121.6930866,0
8.159,-0.2805,-0.6919,-0.2561,-13.9726,-25.6817,-0.4498,2.0112,0.8352,-0.3601,857.0015,37.92,35.1,-13.8,89.201,61.238,132.4,49.17045596,-121.6930866,0
8.161,-0.2805,-0.6919,-0.2561,-13.9726,-25.6817,-0.4498,2.3553,1.9484,-1.2783,857.0015,37.92,35.1,-13.8,89.201,61.238,132.4,49.17045596,-121.6930866,0
8.163,-0.2805,-0.6919,-0.2561,-10.1251,-13.183,-3.3872,2.3553,1.9484,-1.2783,857.0015,37.92,35.1,-13.8,89.201,61.238,132.4,49.17045596,-121.6930866,0
8.217,-0.3435,-0.065,-0.3235,-10.1251,-13.183,-3.3872,2.3553,1.9484,-1.2783,857.0015,37.92,35.1,-13.8,48.142,7.849,133.285,49.17045596,-121.6930866,0
8.219,-0.3435,-0.065,-0.3235,-10.1251,-13.183,-3.3872,2.3553,1.9484,-1.2783,857.0015,37.74,35.58,-13.5,47.462,7.849,133.285,49.17045596,-121.6930866,0
8.221,-0.3435,-0.065,-0.3235,-10.1251,-13.183,-3.3872,0.9726,1.8525,-1.8759,857.0015,37.74,35.58,-13.5,47.462,7.849,133.285,49.17045596,-121.6930866,0
8.227,-0.3435,-0.065,-0.3235,-9.8183,-7.9528,-4.1837,0.9726,1.8525,-1.8759,857.0015,37.74,35.58,-13.5,47.462,7.849,133.285,49.17045596,-121.6930866,0
8.288,-0.9176,0.0117,-0.7564,-9.8183,-7.9528,-4.1837,0.9726,1.8525,-1.8759,857.0015,37.74,35.58,-13.5,43.893,-0.562,129.5,49.17045596,-121.6930866,0
8.295,-0.9176,0.0117,-0.7564,-9.8183,-7.9528,-4.1837,0.9726,1.8525,-1.8759,857.0015,37.38,36.24,-13.2,42.985,-0.562,129.5,49.17045596,-121.6930866,0
8.296,-0.9176,0.0117,-0.7564,-9.8183,-7.9528,-4.1837,-0.3611,0.8895,-1.6607,857.0015,37.38,36.24,-13.2,42.985,-0.562,129.5,49.17045596,-121.6930866,0
8.298,-0.9176,0.0117,-0.7564,-14.2289,-8.1161,-8.4193,-0.3611,0.8895,-1.6607,857.0015,37.38,36.24,-13.2,42.985,-0.562,129.5,49.17045596,-121.6930866,0
8.317,-0.9176,0.0117,-0.7564,-14.2289,-8.1161,-8.4193,-0.3611,0.8895,-1.6607,856.3975,37.38,36.24,-13.2,42.985,-0.562,129.5,49.17045596,-121.6930866,0
8.319,-0.9176,0.0117,-0.7564,-14.2289,-8.1161,-8.4193,-0.3611,0.8895,-1.6607,856.3975,37.38,36.24,-13.2,42.985,-0.562,129.5,49.17045596,-121.6930866,0
8.337,-0.7344,-0.4579,0.1372,-14.2289,-8.1161,-8.4193,-0.3611,0.8895,-1.6607,856.3975,37.38,36.24,-13.2,30.356,31.504,79.415,49.17045596,-121.6930866,0
8.338,-0.7344,-0.4579,0.1372,-14.2289,-8.1161,-8.4193,-0.3611,0.8895,-1.6607,856.3975,37.02,37.14,-13.08,27.994,31.504,79.415,49.17045596,-121.6930866,0
8.34,-0.7344,-0.4579,0.1372,-14.2289,-8.1161,-8.4193,-0.6093,0.5657,-1.4456,856.3975,37.02,37.14,-13.08,27.994,31.504,79.415,49.17045596,-121.6930866,0
8.342,-0.7344,-0.4579,0.1372,-12.6889,-12.4401,-0.3169,-0.6093,0.5657,-1.4456,856.3975,37.02,37.14,-13.08,27.994,31.504,79.415,49.17045596,-121.6930866,0
8.399,-0.9841,-0.1833,-0.4457,-12.6889,-12.4401,-0.3169,-0.6093,0.5657,-1.4456,856.3975,37.02,37.14,-13.08,40.46,9.63,114.365,49.17045596,-121.6930866,0
8.402,-0.9841,-0.1833,-0.4457,-12.6889,-12.4401,-0.3169,-0.6093,0.5657,-1.4456,856.3975,36.3,38.16,-12.96,39.074,9.63,114.365,49.17045596,-121.6930866,0
8.408,-0.9841,-0.1833,-0.4457,-12.6889,-12.4401,-0.3169,-0.0096,1.9494,0.1204,856.3975,36.3,38.16,-12.96,39.074,9.63,114.365,49.17045596,-121.6930866,0
8.41,-0.9841,-0.1833,-0.4457,-14.3971,-10.0861,-6.571,-0.0096,1.9494,0.1204,856.3975,36.3,38.16,-12.96,39.074,9.63,114.365,49.17045596,-121.6930866,0
8.457,-0.6073,-0.2624,-0.176,-14.3971,-10.0861,-6.571,-0.0096,1.9494,0.1204,856.3975,36.3,38.16,-12.96,44.11,22.541,106.157,49.17045596,-121.6930866,0
8.458,-0.6073,-0.2624,-0.176,-14.3971,-10.0861,-6.571,-0.0096,1.9494,0.1204,856.3975,35.4,39.3,-12.6,41.737,22.541,106.157,49.17045596,-121.6930866,0
8.46,-0.6073,-0.2624,-0.176,-14.3971,-10.0861,-6.571,-0.4357,0.9055,1.1984,856.3975,35.4,39.3,-12.6,41.737,22.541,106.157,49.17045596,-121.6930866,0
8.462,-0.6073,-0.2624,-0.176,-11.8087,-9.8725,-4.652,-0.4357,0.9055,1.1984,856.3975,35.4,39.3,-12.6,41.737,22.541,106.157,49.17045596,-121.6930866,0
8.492,-0.6073,-0.2624,-0.176,-11.8087,-9.8725,-4.652,-0.4357,0.9055,1.1984,856.689,35.4,39.3,-12.6,41.737,22.541,106.157,49.17045596,-121.6930866,0
8.494,-0.6073,-0.2624,-0.176,-11.8087,-9.8725,-4.652,-0.4357,0.9055,1.1984,856.689,35.4,39.3,-12.6,41.737,22.541,106.157,49.17045596,-121.6930866,0
8.516,-1.3183,-1.6672,0.2516,-11.8087,-9.8725,-4.652,-0.4357,0.9055,1.1984,856.689,35.4,39.3,-12.6,126.727,51.167,79.196,49.17045596,-121.6930866,0
8.517,-1.3183,-1.6672,0.2516,-11.8087,-9.8725,-4.652,-0.4357,0.9055,1.1984,856.689,34.44,40.38,-12.06,117.389,51.167,79.196,49.17045596,-121.6930866,0
8.519,-1.3183,-1.6672,0.2516,-11.8087,-9.8725,-4.652,-0.9353,0.1417,0.4602,856.689,34.44,40.38,-12.06,117.389,51.167,79.196,49.17045596,-121.6930866,0
8.521,-1.3183,-1.6672,0.2516,-19.0522,-23.1451,-1.0313,-0.9353,0.1417,0.4602,856.689,34.44,40.38,-12.06,117.389,51.167,79.196,49.17045596,-121.6930866,0
8.577,-0.8052,-1.6936,0.1582,-19.0522,-23.1451,-1.0313,-0.9353,0.1417,0.4602,856.689,34.44,40.38,-12.06,160.783,64.147,78.882,49.17045596,-121.6930866,0
8.58,-0.8052,-1.6936,0.1582,-19.0522,-23.1451,-1.0313,-0.9353,0.1417,0.4602,856.689,33.42,41.4,-11.46,160.354,64.147,78.882,49.17045596,-121.6930866,0
8.583,-0.8052,-1.6936,0.1582,-19.0522,-23.1451,-1.0313,-0.1928,-0.8639,0.3515,856.689,33.42,41.4,-11.46,160.354,64.147,78.882,49.17045596,-121.6930866,0
8.589,-0.8052,-1.6936,0.1582,-14.2621,-23.2054,-1.9009,-0.1928,-0.8639,0.3515,856.689,33.42,41.4,-11.46,160.354,64.147,78.882,49.17045596,-121.6930866,0
8.636,-0.5165,-0.6084,-0.1403,-14.2621,-23.2054,-1.9009,-0.1928,-0.8639,0.3515,856.689,33.42,41.4,-11.46,74.801,48.663,105.197,49.17045596,-121.6930866,0
8.638,-0.5165,-0.6084,-0.1403,-14.2621,-23.2054,-1.9009,-0.1928,-0.8639,0.3515,856.689,32.46,42.42,-10.74,70.693,48.663,105.197,49.17045596,-121.6930866,0
8.64,-0.5165,-0.6084,-0.1403,-14.2621,-23.2054,-1.9009,0.0447,-1.045,-0.0138,856.689,32.46,42.42,-10.74,70.693,48.663,105.197,49.17045596,-121.6930866,0
8.643,-0.5165,-0.6084,-0.1403,-11.419,-12.9793,-3.9263,0.0447,-1.045,-0.0138,856.689,32.46,42.42,-10.74,70.693,48.663,105.197,49.17045596,-121.6930866,0
8.674,-0.5165,-0.6084,-0.1403,-11.419,-12.9793,-3.9263,0.0447,-1.045,-0.0138,856.9648,32.46,42.42,-10.74,70.693,48.663,105.197,49.17045596,-121.6930866,0
8.677,-0.5165,-0.6084,-0.1403,-11.419,-12.9793,-3.9263,0.0447,-1.045,-0.0138,856.9648,32.46,42.42,-10.74,70.693,48.663,105.197,49.17045596,-121.6930866,0
8.698,-0.4275,-0.602,-0.1564,-11.419,-12.9793,-3.9263,0.0447,-1.045,-0.0138,856.9648,32.46,42.42,-10.74,78.776,52.904,110.095,49.17045596,-121.6930866,0
8.7,-0.4275,-0.602,-0.1564,-11.419,-12.9793,-3.9263,0.0447,-1.045,-0.0138,856.9648,31.44,43.38,-10.08,75.143,52.904,110.095,49.17045596,-121.6930866,0
8.703,-0.4275,-0.602,-0.1564,-11.419,-12.9793,-3.9263,-0.4357,-0.8842,-0.2269,856.9648,31.44,43.38,-10.08,75.143,52.904,110.095,49.17045596,-121.6930866,0
8.709,-0.4275,-0.602,-0.1564,-10.5986,-12.9395,-3.8872,-0.4357,-0.8842,-0.2269,856.9648,31.44,43.38,-10.08,75.143,52.904,110.095,49.17045596,-121.6930866,0
8.756,-0.427,-0.9856,-0.2517,-10.5986,-12.9395,-3.8872,-0.4357,-0.8842,-0.2269,856.9648,31.44,43.38,-10.08,90.31,63.3,120.515,49.17045596,-121.6930866,0
8.758,-0.427,-0.9856,-0.2517,-10.5986,-12.9395,-3.8872,-0.4357,-0.8842,-0.2269,856.9648,30.48,44.28,-9.36,88.338,63.3,120.515,49.17045596,-121.6930866,0
8.76,-0.427,-0.9856,-0.2517,-10.5986,-12.9395,-3.8872,-0.0703,-0.8991,-0.1854,856.9648,30.48,44.28,-9.36,88.338,63.3,120.515,49.17045596,-121.6930866,0
8.763,-0.427,-0.9856,-0.2517,-10.1754,-17.1284,-4.586,-0.0703,-0.8991,-0.1854,856.9648,30.48,44.28,-9.36,88.338,63.3,120.515,49.17045596,-121.6930866,0
8.822,-0.3029,-0.8625,-0.2273,-10.1754,-17.1284,-4.586,-0.0703,-0.8991,-0.1854,856.9648,30.48,44.28,-9.36,88.619,66.293,126.877,49.17045596,-121.6930866,0
8.828,-0.3029,-0.8625,-0.2273,-10.1754,-17.1284,-4.586,-0.0703,-0.8991,-0.1854,856.9648,29.46,45.12,-8.64,86.949,66.293,126.877,49.17045596,-121.6930866,0
8.831,-0.3029,-0.8625,-0.2273,-10.1754,-17.1284,-4.586,1.5691,-0.9257,-0.0053,856.9648,29.46,45.12,-8.64,86.949,66.293,126.877,49.17045596,-121.6930866,0
8.833,-0.3029,-0.8625,-0.2273,-8.477,-16.3528,-4.0738,1.5691,-0.9257,-0.0053,856.9648,29.46,45.12,-8.64,86.949,66.293,126.877,49.17045596,-121.6930866,0
8.853,-0.3029,-0.8625,-0.2273,-8.477,-16.3528,-4.0738,1.5691,-0.9257,-0.0053,856.7183,29.46,45.12,-8.64,86.949,66.293,126.877,49.17045596,-121.6930866,0
8.856,-0.3029,-0.8625,-0.2273,-8.477,-16.3528,-4.0738,1.5691,-0.9257,-0.0053,856.7183,29.46,45.12,-8.64,86.949,66.293,126.877,49.17045596,-121.6930866,0
8.878,-0.2629,-0.2199,-0.1408,-8.477,-16.3528,-4.0738,1.5691,-0.9257,-0.0053,856.7183,29.46,45.12,-8.64,42.71,36.411,118.171,49.17045596,-121.6930866,0
8.882,-0.2629,-0.2199,-0.1408,-8.477,-16.3528,-4.0738,1.5691,-0.9257,-0.0053,856.7183,28.5,45.9,-7.98,40.181,36.411,118.171,49.17045596,-121.6930866,0
8.886,-0.2629,-0.2199,-0.1408,-8.477,-16.3528,-4.0738,0.3047,-0.6487,0.9715,856.7183,28.5,45.9,-7.98,40.181,36.411,118.171,49.17045596,-121.6930866,0
8.889,-0.2629,-0.2199,-0.1408,-8.3927,-9.9733,-2.4836,0.3047,-0.6487,0.9715,856.7183,28.5,45.9,-7.98,40.181,36.411,118.171,49.17045596,-121.6930866,0
8.945,-0.6113,-0.4809,-0.498,-8.3927,-9.9733,-2.4836,0.3047,-0.6487,0.9715,856.7183,28.5,45.9,-7.98,38.594,31.379,129.168,49.17045596,-121.6930866,0
8.952,-0.6113,-0.4809,-0.498,-8.3927,-9.9733,-2.4836,0.3047,-0.6487,0.9715,856.7183,27.72,46.68,-7.5,36.842,31.379,129.168,49.17045596,-121.6930866,0
8.955,-0.6113,-0.4809,-0.498,-8.3927,-9.9733,-2.4836,-0.3579,-0.7617,0.506,856.7183,27.72,46.68,-7.5,36.842,31.379,129.168,49.17045596,-121.6930866,0
8.957,-0.6113,-0.4809,-0.498,-12.338,-11.9463,-6.7634,-0.3579,-0.7617,0.506,856.7183,27.72,46.68,-7.5,36.842,31.379,129.168,49.17045596,-121.6930866,0
8.995,-0.6889,-0.6519,-0.4203,-12.338,-11.9463,-6.7634,-0.3579,-0.7617,0.506,856.7183,27.72,46.68,-7.5,41.088,38.93,121.384,49.17045596,-121.6930866,0
8.996,-0.6889,-0.6519,-0.4203,-12.338,-11.9463,-6.7634,-0.3579,-0.7617,0.506,856.7183,27,47.34,-7.08,39.19,38.93,121.384,49.17045596,-121.6930866,0
8.998,-0.6889,-0.6519,-0.4203,-12.338,-11.9463,-6.7634,-0.7372,-1.1984,0.539,856.7183,27,47.34,-7.08,39.19,38.93,121.384,49.17045596,-121.6930866,0
9,-0.6889,-0.6519,-0.4203,-13.411,-13.2313,-6.3539,-0.7372,-1.1984,0.539,856.7183,27,47.34,-7.08,39.19,38.93,121.384,49.17045596,-121.6930866,0
9.036,-0.6889,-0.6519,-0.4203,-13.411,-13.2313,-6.3539,-0.7372,-1.1984,0.539,856.78,27,47.34,-7.08,39.19,38.93,121.384,49.17045596,-121.6930866,0
9.038,-0.6889,-0.6519,-0.4203,-13.411,-13.2313,-6.3539,-0.7372,-1.1984,0.539,856.78,27,47.34,-7.08,39.19,38.93,121.384,49.17045596,-121.6930866,0
9.056,-0.4422,-1.1292,-0.2248,-13.411,-13.2313,-6.3539,-0.7372,-1.1984,0.539,856.78,27,47.34,-7.08,90.179,66.285,116.95,49.17045596,-121.6930866,0
9.058,-0.4422,-1.1292,-0.2248,-13.411,-13.2313,-6.3539,-0.7372,-1.1984,0.539,856.78,26.46,47.82,-6.84,88.492,66.285,116.95,49.17045596,-121.6930866,0
9.061,-0.4422,-1.1292,-0.2248,-13.411,-13.2313,-6.3539,-1.5532,-0.2503,0.5529,856.78,26.46,47.82,-6.84,88.492,66.285,116.95,49.17045596,-121.6930866,0
9.064,-0.4422,-1.1292,-0.2248,-10.8054,-17.9928,-4.7156,-1.5532,-0.2503,0.5529,856.78,26.46,47.82,-6.84,88.492,66.285,116.95,49.17045596,-121.6930866,0
9.117,-0.3601,-2.0014,0.3371,-10.8054,-17.9928,-4.7156,-1.5532,-0.2503,0.5529,856.78,26.46,47.82,-6.84,-132.16,76.155,46.892,49.17045596,-121.6930866,0
9.119,-0.3601,-2.0014,0.3371,-10.8054,-17.9928,-4.7156,-1.5532,-0.2503,0.5529,856.78,26.04,48.18,-6.54,-130.874,76.155,46.892,49.17045596,-121.6930866,0
9.122,-0.3601,-2.0014,0.3371,-10.8054,-17.9928,-4.7156,-0.9449,-0.1502,-0.3696,856.78,26.04,48.18,-6.54,-130.874,76.155,46.892,49.17045596,-121.6930866,0
9.125,-0.3601,-2.0014,0.3371,-10.018,-26.3186,0.2864,-0.9449,-0.1502,-0.3696,856.78,26.04,48.18,-6.54,-130.874,76.155,46.892,49.17045596,-121.6930866,0
9.18,-0.5116,-1.957,0.4294,-10.018,-26.3186,0.2864,-0.9449,-0.1502,-0.3696,856.78,26.04,48.18,-6.54,-121.862,71.155,49.989,49.17045596,-121.6930866,0
9.185,-0.5116,-1.957,0.4294,-10.018,-26.3186,0.2864,-0.9449,-0.1502,-0.3696,856.78,25.62,48.3,-6.24,-120.058,71.155,49.989,49.17045596,-121.6930866,0
9.192,-0.5116,-1.957,0.4294,-10.018,-26.3186,0.2864,0.6669,0.4847,-0.2653,856.78,25.62,48.3,-6.24,-120.058,71.155,49.989,49.17045596,-121.6930866,0
9.196,-0.5116,-1.957,0.4294,-11.2134,-26.0966,1.0675,0.6669,0.4847,-0.2653,856.78,25.62,48.3,-6.24,-120.058,71.155,49.989,49.17045596,-121.6930866,0
9.212,-0.5116,-1.957,0.4294,-11.2134,-26.0966,1.0675,0.6669,0.4847,-0.2653,856.7351,25.62,48.3,-6.24,-120.058,71.155,49.989,49.17045596,-121.6930866,0
9.216,-0.5116,-1.957,0.4294,-11.2134,-26.0966,1.0675,0.6669,0.4847,-0.2653,856.7351,25.62,48.3,-6.24,-120.058,71.155,49.989,49.17045596,-121.6930866,0
9.237,-0.4544,-0.6108,-0.067,-11.2134,-26.0966,1.0675,0.6669,0.4847,-0.2653,856.7351,25.62,48.3,-6.24,46.216,53.058,98.388,49.17045596,-121.6930866,0
9.24,-0.4544,-0.6108,-0.067,-11.2134,-26.0966,1.0675,0.6669,0.4847,-0.2653,856.7351,25.38,48.3,-6,44.934,53.058,98.388,49.17045596,-121.6930866,0
9.244,-0.4544,-0.6108,-0.067,-11.2134,-26.0966,1.0675,1.4914,0.8533,0.1076,856.7351,25.38,48.3,-6,44.934,53.058,98.388,49.17045596,-121.6930866,0
9.248,-0.4544,-0.6108,-0.067,-10.3587,-13.5185,-2.7918,1.4914,0.8533,0.1076,856.7351,25.38,48.3,-6,44.934,53.058,98.388,49.17045596,-121.6930866,0
9.297,-0.5316,-0.4242,-0.2346,-10.3587,-13.5185,-2.7918,1.4914,0.8533,0.1076,856.7351,25.38,48.3,-6,30.467,36.129,113.811,49.17045596,-121.6930866,0
9.3,-0.5316,-0.4242,-0.2346,-10.3587,-13.5185,-2.7918,1.4914,0.8533,0.1076,856.7351,25.26,48.06,-5.94,30.437,36.129,113.811,49.17045596,-121.6930866,0
9.303,-0.5316,-0.4242,-0.2346,-10.3587,-13.5185,-2.7918,0.9268,0.7489,-0.4282,856.7351,25.26,48.06,-5.94,30.437,36.129,113.811,49.17045596,-121.6930866,0
9.308,-0.5316,-0.4242,-0.2346,-11.1025,-11.7493,-4.2489,0.9268,0.7489,-0.4282,856.7351,25.26,48.06,-5.94,30.437,36.129,113.811,49.17045596,-121.6930866,0
9.354,-0.7178,-0.3695,-0.4061,-11.1025,-11.7493,-4.2489,0.9268,0.7489,-0.4282,856.7351,25.26,48.06,-5.94,26.022,24.132,119.5,49.17044408,-121.6931017,0
9.355,-0.7178,-0.3695,-0.4061,-11.1025,-11.7493,-4.2489,0.9268,0.7489,-0.4282,856.7351,25.56,47.64,-6.12,26.702,24.132,119.5,49.17044408,-121.6931017,0
9.357,-0.7178,-0.3695,-0.4061,-11.1025,-11.7493,-4.2489,0.3792,0.4218,-0.5156,856.7351,25.56,47.64,-6.12,26.702,24.132,119.5,49.17044408,-121.6931017,0
9.358,-0.7178,-0.3695,-0.4061,-13.0008,-11.0402,-6.3291,0.3792,0.4218,-0.5156,856.7351,25.56,47.64,-6.12,26.702,24.132,119.5,49.17044408,-121.6931017,0
9.396,-0.7178,-0.3695,-0.4061,-13.0008,-11.0402,-6.3291,0.3792,0.4218,-0.5156,856.6858,25.56,47.64,-6.12,26.702,24.132,119.5,49.17044408,-121.6931017,0
9.398,-0.7178,-0.3695,-0.4061,-13.0008,-11.0402,-6.3291,0.3792,0.4218,-0.5156,856.6858,25.56,47.64,-6.12,26.702,24.132,119.5,49.17044408,-121.6931017,0
9.415,-0.7178,-0.3695,-0.4061,-13.0008,-11.0402,-6.3291,0.3792,0.4218,-0.5156,856.6858,25.98,47.16,-6.54,27.766,24.132,119.5,49.17044408,-121.6931017,0
9.417,-0.7178,-0.3695,-0.4061,-13.0008,-11.0402,-6.3291,-0.1055,-0.0969,-0.7009,856.6858,25.98,47.16,-6.54,27.766,24.132,119.5,49.17044408,-121.6931017,0
9.42,-0.8096,-0.3074,-0.3504,-13.0008,-11.0402,-6.3291,-0.1055,-0.0969,-0.7009,856.6858,25.98,47.16,-6.54,23.496,19.211,113.402,49.17044408,-121.6931017,0
9.423,-0.8096,-0.3074,-0.3504,-13.3001,-10.6445,-6.7316,-0.1055,-0.0969,-0.7009,856.6858,25.98,47.16,-6.54,23.496,19.211,113.402,49.17044408,-121.6931017,0
9.477,-0.7573,-0.4359,-0.2453,-13.3001,-10.6445,-6.7316,-0.1055,-0.0969,-0.7009,856.6858,25.98,47.16,-6.54,25.036,28.703,107.95,49.17044408,-121.6931017,0
9.48,-0.7573,-0.4359,-0.2453,-13.3001,-10.6445,-6.7316,-0.1055,-0.0969,-0.7009,856.6858,26.52,46.68,-7.02,26.439,28.703,107.95,49.17044408,-121.6931017,0
9.484,-0.7573,-0.4359,-0.2453,-13.3001,-10.6445,-6.7316,-0.7446,-0.2695,-1.0024,856.6858,26.52,46.68,-7.02,26.439,28.703,107.95,49.17044408,-121.6931017,0
9.489,-0.7573,-0.4359,-0.2453,-13.8632,-11.0566,-5.3452,-0.7446,-0.2695,-1.0024,856.6858,26.52,46.68,-7.02,26.439,28.703,107.95,49.17044408,-121.6931017,0
9.543,-0.9142,-1.2299,0.1499,-13.8632,-11.0566,-5.3452,-0.7446,-0.2695,-1.0024,856.6858,26.52,46.68,-7.02,22.782,53.011,80.685,49.17044408,-121.6931017,0
9.55,-0.9142,-1.2299,0.1499,-13.8632,-11.0566,-5.3452,-0.7446,-0.2695,-1.0024,856.6858,27,46.26,-7.68,30,53.011,80.685,49.17044408,-121.6931017,0
9.555,-0.9142,-1.2299,0.1499,-13.8632,-11.0566,-5.3452,-0.8991,0.066,-0.5326,856.6858,27,46.26,-7.68,30,53.011,80.685,49.17044408,-121.6931017,0
9.556,-0.9142,-1.2299,0.1499,-15.335,-18.9637,-1.3162,-0.8991,0.066,-0.5326,856.6858,27,46.26,-7.68,30,53.011,80.685,49.17044408,-121.6931017,0
9.569,-0.9142,-1.2299,0.1499,-15.335,-18.9637,-1.3162,-0.8991,0.066,-0.5326,856.7336,27,46.26,-7.68,30,53.011,80.685,49.17044408,-121.6931017,0
9.571,-0.9142,-1.2299,0.1499,-15.335,-18.9637,-1.3162,-0.8991,0.066,-0.5326,856.7336,27,46.26,-7.68,30,53.011,80.685,49.17044408,-121.6931017,0
9.593,-0.624,-1.3911,0.017,-15.335,-18.9637,-1.3162,-0.8991,0.066,-0.5326,856.7336,27,46.26,-7.68,130.266,65.835,88.436,49.17044408,-121.6931017,0
9.595,-0.624,-1.3911,0.017,-15.335,-18.9637,-1.3162,-0.8991,0.066,-0.5326,856.7336,27.42,46.02,-8.28,130.257,65.835,88.436,49.17044408,-121.6931017,0
9.599,-0.624,-1.3911,0.017,-15.335,-18.9637,-1.3162,-0.44,-0.0117,-0.1949,856.7336,27.42,46.02,-8.28,130.257,65.835,88.436,49.17044408,-121.6931017,0
9.601,-0.624,-1.3911,0.017,-12.3747,-20.531,-2.8997,-0.44,-0.0117,-0.1949,856.7336,27.42,46.02,-8.28,130.257,65.835,88.436,49.17044408,-121.6931017,0
9.657,-0.0303,-1.3315,0.3923,-12.3747,-20.531,-2.8997,-0.44,-0.0117,-0.1949,856.7336,27.42,46.02,-8.28,-83.378,73.538,4.416,49.17044408,-121.6931017,0
9.664,-0.0303,-1.3315,0.3923,-12.3747,-20.531,-2.8997,-0.44,-0.0117,-0.1949,856.7336,27.72,45.84,-8.94,-84.92,73.538,4.416,49.17044408,-121.6931017,0
9.671,-0.0303,-1.3315,0.3923,-12.3747,-20.531,-2.8997,-0.2365,0.1076,0.1523,856.7336,27.72,45.84,-8.94,-84.92,73.538,4.416,49.17044408,-121.6931017,0
9.675,-0.0303,-1.3315,0.3923,-5.536,-21.1424,2.0508,-0.2365,0.1076,0.1523,856.7336,27.72,45.84,-8.94,-84.92,73.538,4.416,49.17044408,-121.6931017,0
9.713,-0.4251,-1.0134,-0.0289,-5.536,-21.1424,2.0508,-0.2365,0.1076,0.1523,856.7336,27.72,45.84,-8.94,123.582,67.197,93.888,49.17044408,-121.6931017,0
9.715,-0.4251,-1.0134,-0.0289,-5.536,-21.1424,2.0508,-0.2365,0.1076,0.1523,856.7336,27.96,45.78,-9.54,122.874,67.197,93.888,49.17044408,-121.6931017,0
9.717,-0.4251,-1.0134,-0.0289,-5.536,-21.1424,2.0508,0.3707,0.4016,0.2844,856.7336,27.96,45.78,-9.54,122.874,67.197,93.888,49.17044408,-121.6931017,0
9.718,-0.4251,-1.0134,-0.0289,-8.8517,-18.4889,-1.277,0.3707,0.4016,0.2844,856.7336,27.96,45.78,-9.54,122.874,67.197,93.888,49.17044408,-121.6931017,0
9.751,-0.4251,-1.0134,-0.0289,-8.8517,-18.4889,-1.277,0.3707,0.4016,0.2844,856.7292,27.96,45.78,-9.54,122.874,67.197,93.888,49.17044408,-121.6931017,0
9.755,-0.4251,-1.0134,-0.0289,-8.8517,-18.4889,-1.277,0.3707,0.4016,0.2844,856.7292,27.96,45.78,-9.54,122.874,67.197,93.888,49.17044408,-121.6931017,0
9.776,-0.407,-0.8024,-0.0348,-8.8517,-18.4889,-1.277,0.3707,0.4016,0.2844,856.7292,27.96,45.78,-9.54,105.665,63.019,94.88,49.17044408,-121.6931017,0
9.78,-0.407,-0.8024,-0.0348,-8.8517,-18.4889,-1.277,0.3707,0.4016,0.2844,856.7292,28.26,45.72,-10.02,106.161,63.019,94.88,49.17044408,-121.6931017,0
9.783,-0.407,-0.8024,-0.0348,-8.8517,-18.4889,-1.277,0.228,-0.1992,-0.1204,856.7292,28.26,45.72,-10.02,106.161,63.019,94.88,49.17044408,-121.6931017,0
9.787,-0.407,-0.8024,-0.0348,-8.6081,-16.4638,-1.268,0.228,-0.1992,-0.1204,856.7292,28.26,45.72,-10.02,106.161,63.019,94.88,49.17044408,-121.6931017,0
9.836,-0.4803,-0.6914,-0.0626,-8.6081,-16.4638,-1.268,0.228,-0.1992,-0.1204,856.7292,28.26,45.72,-10.02,72.285,54.988,97.426,49.17044408,-121.6931017,0
9.839,-0.4803,-0.6914,-0.0626,-8.6081,-16.4638,-1.268,0.228,-0.1992,-0.1204,856.7292,28.32,45.72,-10.44,72.805,54.988,97.426,49.17044408,-121.6931017,0
9.842,-0.4803,-0.6914,-0.0626,-8.6081,-16.4638,-1.268,-0.0075,-0.2706,0.0469,856.7292,28.32,45.72,-10.44,72.805,54.988,97.426,49.17044408,-121.6931017,0
9.846,-0.4803,-0.6914,-0.0626,-9.437,-15.3248,-1.4613,-0.0075,-0.2706,0.0469,856.7292,28.32,45.72,-10.44,72.805,54.988,97.426,49.17044408,-121.6931017,0
9.898,-0.4608,-0.6441,-0.1388,-9.437,-15.3248,-1.4613,-0.0075,-0.2706,0.0469,856.7292,28.32,45.72,-10.44,66.083,53.234,106.768,49.17044408,-121.6931017,0
9.902,-0.4608,-0.6441,-0.1388,-9.437,-15.3248,-1.4613,-0.0075,-0.2706,0.0469,856.7292,28.26,45.72,-10.56,66.004,53.234,106.768,49.17044408,-121.6931017,0
9.905,-0.4608,-0.6441,-0.1388,-9.437,-15.3248,-1.4613,0.081,-0.1353,0.3483,856.7292,28.26,45.72,-10.56,66.004,53.234,106.768,49.17044408,-121.6931017,0
9.908,-0.4608,-0.6441,-0.1388,-9.4814,-14.7243,-2.219,0.081,-0.1353,0.3483,856.7292,28.26,45.72,-10.56,66.004,53.234,106.768,49.17044408,-121.6931017,0
9.93,-0.4608,-0.6441,-0.1388,-9.4814,-14.7243,-2.219,0.081,-0.1353,0.3483,856.7141,28.26,45.72,-10.56,66.004,53.234,106.768,49.17044408,-121.6931017,0
9.933,-0.4608,-0.6441,-0.1388,-9.4814,-14.7243,-2.219,0.081,-0.1353,0.3483,856.7141,28.26,45.72,-10.56,66.004,53.234,106.768,49.17044408,-121.6931017,0
9.955,-0.3743,-0.6191,-0.2292,-9.4814,-14.7243,-2.219,0.081,-0.1353,0.3483,856.7141,28.26,45.72,-10.56,64.61,54.668,121.485,49.17044408,-121.6931017,0
9.958,-0.3743,-0.6191,-0.2292,-9.4814,-14.7243,-2.219,0.081,-0.1353,0.3483,856.7141,28.14,45.84,-10.62,64.249,54.668,121.485,49.17044408,-121.6931017,0
9.961,-0.3743,-0.6191,-0.2292,-9.4814,-14.7243,-2.219,0.1662,-0.2823,0.4112,856.7141,28.14,45.84,-10.62,64.249,54.668,121.485,49.17044408,-121.6931017,0
9.967,-0.3743,-0.6191,-0.2292,-8.8875,-14.3078,-3.2583,0.1662,-0.2823,0.4112,856.7141,28.14,45.84,-10.62,64.249,54.668,121.485,49.17044408,-121.6931017,0
10.011,-0.2902,-0.7432,-0.2678,-8.8875,-14.3078,-3.2583,0.1662,-0.2823,0.4112,856.7141,28.14,45.84,-10.62,70.339,62.016,132.7,49.17044408,-121.6931017,0
10.012,-0.2902,-0.7432,-0.2678,-8.8875,-14.3078,-3.2583,0.1662,-0.2823,0.4112,856.7141,27.84,46.08,-10.56,69.656,62.016,132.7,49.17044408,-121.6931017,0
10.014,-0.2902,-0.7432,-0.2678,-8.8875,-14.3078,-3.2583,-0.0554,-0.2535,0.2834,856.7141,27.84,46.08,-10.56,69.656,62.016,132.7,49.17044408,-121.6931017,0
10.015,-0.2902,-0.7432,-0.2678,-7.9894,-15.5408,-3.8572,-0.0554,-0.2535,0.2834,856.7141,27.84,46.08,-10.56,69.656,62.016,132.7,49.17044408,-121.6931017,0
10.078,-0.3425,-0.8698,-0.3812,-7.9894,-15.5408,-3.8572,-0.0554,-0.2535,0.2834,856.7141,27.84,46.08,-10.56,63.034,59.494,138.058,49.17044408,-121.6931017,0
10.083,-0.3425,-0.8698,-0.3812,-7.9894,-15.5408,-3.8572,-0.0554,-0.2535,0.2834,856.7141,27.42,46.44,-10.44,62.131,59.494,138.058,49.17044408,-121.6931017,0
